phase,trials_2.thisRepN,trials_2.thisTrialN,trials_2.thisN,trials_2.thisIndex,trials.thisRepN,trials.thisTrialN,trials.thisN,trials.thisIndex,date,expName,session,participant,
0.0,0,0,0,0,0,0,0,0,2016_Aug_09_1245,None,001,,
0.5,0,0,0,0,0,1,1,1,2016_Aug_09_1245,None,001,,
0.0,0,0,0,0,1,0,2,0,2016_Aug_09_1245,None,001,,
0.5,0,0,0,0,1,1,3,1,2016_Aug_09_1245,None,001,,
0.0,0,0,0,0,2,0,4,0,2016_Aug_09_1245,None,001,,
0.5,0,0,0,0,2,1,5,1,2016_Aug_09_1245,None,001,,
0.0,0,0,0,0,3,0,6,0,2016_Aug_09_1245,None,001,,
0.5,0,0,0,0,3,1,7,1,2016_Aug_09_1245,None,001,,
0.0,0,0,0,0,4,0,8,0,2016_Aug_09_1245,None,001,,
0.5,0,0,0,0,4,1,9,1,2016_Aug_09_1245,None,001,,
0.0,0,0,0,0,5,0,10,0,2016_Aug_09_1245,None,001,,
0.5,0,0,0,0,5,1,11,1,2016_Aug_09_1245,None,001,,
0.0,0,0,0,0,6,0,12,0,2016_Aug_09_1245,None,001,,
0.5,0,0,0,0,6,1,13,1,2016_Aug_09_1245,None,001,,
0.0,0,0,0,0,7,0,14,0,2016_Aug_09_1245,None,001,,
0.5,0,0,0,0,7,1,15,1,2016_Aug_09_1245,None,001,,
0.0,0,0,0,0,8,0,16,0,2016_Aug_09_1245,None,001,,
0.5,0,0,0,0,8,1,17,1,2016_Aug_09_1245,None,001,,
0.0,0,0,0,0,9,0,18,0,2016_Aug_09_1245,None,001,,
0.5,0,0,0,0,9,1,19,1,2016_Aug_09_1245,None,001,,
0.0,0,0,0,0,10,0,20,0,2016_Aug_09_1245,None,001,,
0.5,0,0,0,0,10,1,21,1,2016_Aug_09_1245,None,001,,
0.0,0,0,0,0,11,0,22,0,2016_Aug_09_1245,None,001,,
0.5,0,0,0,0,11,1,23,1,2016_Aug_09_1245,None,001,,
0.0,0,0,0,0,12,0,24,0,2016_Aug_09_1245,None,001,,
0.5,0,0,0,0,12,1,25,1,2016_Aug_09_1245,None,001,,
0.0,0,0,0,0,13,0,26,0,2016_Aug_09_1245,None,001,,
0.5,0,0,0,0,13,1,27,1,2016_Aug_09_1245,None,001,,
0.0,0,0,0,0,14,0,28,0,2016_Aug_09_1245,None,001,,
0.5,0,0,0,0,14,1,29,1,2016_Aug_09_1245,None,001,,
0.0,0,0,0,0,15,0,30,0,2016_Aug_09_1245,None,001,,
0.5,0,0,0,0,15,1,31,1,2016_Aug_09_1245,None,001,,
0.0,0,0,0,0,16,0,32,0,2016_Aug_09_1245,None,001,,
0.5,0,0,0,0,16,1,33,1,2016_Aug_09_1245,None,001,,
0.0,0,0,0,0,17,0,34,0,2016_Aug_09_1245,None,001,,
0.5,0,0,0,0,17,1,35,1,2016_Aug_09_1245,None,001,,
0.0,0,0,0,0,18,0,36,0,2016_Aug_09_1245,None,001,,
0.5,0,0,0,0,18,1,37,1,2016_Aug_09_1245,None,001,,
0.0,0,0,0,0,19,0,38,0,2016_Aug_09_1245,None,001,,
0.5,0,0,0,0,19,1,39,1,2016_Aug_09_1245,None,001,,
0.0,0,0,0,0,20,0,40,0,2016_Aug_09_1245,None,001,,
0.5,0,0,0,0,20,1,41,1,2016_Aug_09_1245,None,001,,
0.0,0,0,0,0,21,0,42,0,2016_Aug_09_1245,None,001,,
0.5,0,0,0,0,21,1,43,1,2016_Aug_09_1245,None,001,,
0.0,0,0,0,0,22,0,44,0,2016_Aug_09_1245,None,001,,
0.5,0,0,0,0,22,1,45,1,2016_Aug_09_1245,None,001,,
0.0,0,0,0,0,23,0,46,0,2016_Aug_09_1245,None,001,,
0.5,0,0,0,0,23,1,47,1,2016_Aug_09_1245,None,001,,
0.0,0,0,0,0,24,0,48,0,2016_Aug_09_1245,None,001,,
0.5,0,0,0,0,24,1,49,1,2016_Aug_09_1245,None,001,,
0.0,0,0,0,0,25,0,50,0,2016_Aug_09_1245,None,001,,
0.5,0,0,0,0,25,1,51,1,2016_Aug_09_1245,None,001,,
0.0,0,0,0,0,26,0,52,0,2016_Aug_09_1245,None,001,,
0.5,0,0,0,0,26,1,53,1,2016_Aug_09_1245,None,001,,
0.0,0,0,0,0,27,0,54,0,2016_Aug_09_1245,None,001,,
0.5,0,0,0,0,27,1,55,1,2016_Aug_09_1245,None,001,,
0.0,0,0,0,0,28,0,56,0,2016_Aug_09_1245,None,001,,
0.5,0,0,0,0,28,1,57,1,2016_Aug_09_1245,None,001,,
0.0,0,0,0,0,29,0,58,0,2016_Aug_09_1245,None,001,,
0.5,0,0,0,0,29,1,59,1,2016_Aug_09_1245,None,001,,
0.0,0,0,0,0,30,0,60,0,2016_Aug_09_1245,None,001,,
0.5,0,0,0,0,30,1,61,1,2016_Aug_09_1245,None,001,,
0.0,0,0,0,0,31,0,62,0,2016_Aug_09_1245,None,001,,
0.5,0,0,0,0,31,1,63,1,2016_Aug_09_1245,None,001,,
0.0,0,0,0,0,32,0,64,0,2016_Aug_09_1245,None,001,,
0.5,0,0,0,0,32,1,65,1,2016_Aug_09_1245,None,001,,
0.0,0,0,0,0,33,0,66,0,2016_Aug_09_1245,None,001,,
0.5,0,0,0,0,33,1,67,1,2016_Aug_09_1245,None,001,,
0.0,0,0,0,0,34,0,68,0,2016_Aug_09_1245,None,001,,
0.5,0,0,0,0,34,1,69,1,2016_Aug_09_1245,None,001,,
0.0,0,0,0,0,35,0,70,0,2016_Aug_09_1245,None,001,,
0.5,0,0,0,0,35,1,71,1,2016_Aug_09_1245,None,001,,
0.0,0,0,0,0,36,0,72,0,2016_Aug_09_1245,None,001,,
0.5,0,0,0,0,36,1,73,1,2016_Aug_09_1245,None,001,,
0.0,0,0,0,0,37,0,74,0,2016_Aug_09_1245,None,001,,
0.5,0,0,0,0,37,1,75,1,2016_Aug_09_1245,None,001,,
0.0,0,0,0,0,38,0,76,0,2016_Aug_09_1245,None,001,,
0.5,0,0,0,0,38,1,77,1,2016_Aug_09_1245,None,001,,
0.0,0,0,0,0,39,0,78,0,2016_Aug_09_1245,None,001,,
0.5,0,0,0,0,39,1,79,1,2016_Aug_09_1245,None,001,,
0.0,0,0,0,0,40,0,80,0,2016_Aug_09_1245,None,001,,
0.5,0,0,0,0,40,1,81,1,2016_Aug_09_1245,None,001,,
0.0,0,0,0,0,41,0,82,0,2016_Aug_09_1245,None,001,,
0.5,0,0,0,0,41,1,83,1,2016_Aug_09_1245,None,001,,
0.0,0,0,0,0,42,0,84,0,2016_Aug_09_1245,None,001,,
0.5,0,0,0,0,42,1,85,1,2016_Aug_09_1245,None,001,,
0.0,0,0,0,0,43,0,86,0,2016_Aug_09_1245,None,001,,
0.5,0,0,0,0,43,1,87,1,2016_Aug_09_1245,None,001,,
0.0,0,0,0,0,44,0,88,0,2016_Aug_09_1245,None,001,,
0.5,0,0,0,0,44,1,89,1,2016_Aug_09_1245,None,001,,
0.0,0,0,0,0,45,0,90,0,2016_Aug_09_1245,None,001,,
0.5,0,0,0,0,45,1,91,1,2016_Aug_09_1245,None,001,,
0.0,0,0,0,0,46,0,92,0,2016_Aug_09_1245,None,001,,
0.5,0,0,0,0,46,1,93,1,2016_Aug_09_1245,None,001,,
0.0,0,0,0,0,47,0,94,0,2016_Aug_09_1245,None,001,,
0.5,0,0,0,0,47,1,95,1,2016_Aug_09_1245,None,001,,
0.0,0,0,0,0,48,0,96,0,2016_Aug_09_1245,None,001,,
0.5,0,0,0,0,48,1,97,1,2016_Aug_09_1245,None,001,,
0.0,0,0,0,0,49,0,98,0,2016_Aug_09_1245,None,001,,
0.5,0,0,0,0,49,1,99,1,2016_Aug_09_1245,None,001,,
0.0,0,0,0,0,50,0,100,0,2016_Aug_09_1245,None,001,,
0.5,0,0,0,0,50,1,101,1,2016_Aug_09_1245,None,001,,
0.0,0,0,0,0,51,0,102,0,2016_Aug_09_1245,None,001,,
0.5,0,0,0,0,51,1,103,1,2016_Aug_09_1245,None,001,,
0.0,0,0,0,0,52,0,104,0,2016_Aug_09_1245,None,001,,
0.5,0,0,0,0,52,1,105,1,2016_Aug_09_1245,None,001,,
0.0,0,0,0,0,53,0,106,0,2016_Aug_09_1245,None,001,,
0.5,0,0,0,0,53,1,107,1,2016_Aug_09_1245,None,001,,
0.0,0,0,0,0,54,0,108,0,2016_Aug_09_1245,None,001,,
0.5,0,0,0,0,54,1,109,1,2016_Aug_09_1245,None,001,,
0.0,0,0,0,0,55,0,110,0,2016_Aug_09_1245,None,001,,
0.5,0,0,0,0,55,1,111,1,2016_Aug_09_1245,None,001,,
0.0,0,0,0,0,56,0,112,0,2016_Aug_09_1245,None,001,,
0.5,0,0,0,0,56,1,113,1,2016_Aug_09_1245,None,001,,
0.0,0,0,0,0,57,0,114,0,2016_Aug_09_1245,None,001,,
0.5,0,0,0,0,57,1,115,1,2016_Aug_09_1245,None,001,,
0.0,0,0,0,0,58,0,116,0,2016_Aug_09_1245,None,001,,
0.5,0,0,0,0,58,1,117,1,2016_Aug_09_1245,None,001,,
0.0,0,0,0,0,59,0,118,0,2016_Aug_09_1245,None,001,,
0.5,0,0,0,0,59,1,119,1,2016_Aug_09_1245,None,001,,
0.0,0,0,0,0,60,0,120,0,2016_Aug_09_1245,None,001,,
0.5,0,0,0,0,60,1,121,1,2016_Aug_09_1245,None,001,,
0.0,0,0,0,0,61,0,122,0,2016_Aug_09_1245,None,001,,
0.5,0,0,0,0,61,1,123,1,2016_Aug_09_1245,None,001,,
0.0,0,0,0,0,62,0,124,0,2016_Aug_09_1245,None,001,,
0.5,0,0,0,0,62,1,125,1,2016_Aug_09_1245,None,001,,
0.0,0,0,0,0,63,0,126,0,2016_Aug_09_1245,None,001,,
0.5,0,0,0,0,63,1,127,1,2016_Aug_09_1245,None,001,,
0.0,0,0,0,0,64,0,128,0,2016_Aug_09_1245,None,001,,
0.5,0,0,0,0,64,1,129,1,2016_Aug_09_1245,None,001,,
0.0,0,0,0,0,65,0,130,0,2016_Aug_09_1245,None,001,,
0.5,0,0,0,0,65,1,131,1,2016_Aug_09_1245,None,001,,
0.0,0,0,0,0,66,0,132,0,2016_Aug_09_1245,None,001,,
0.5,0,0,0,0,66,1,133,1,2016_Aug_09_1245,None,001,,
0.0,0,0,0,0,67,0,134,0,2016_Aug_09_1245,None,001,,
0.5,0,0,0,0,67,1,135,1,2016_Aug_09_1245,None,001,,
0.0,0,0,0,0,68,0,136,0,2016_Aug_09_1245,None,001,,
0.5,0,0,0,0,68,1,137,1,2016_Aug_09_1245,None,001,,
0.0,0,0,0,0,69,0,138,0,2016_Aug_09_1245,None,001,,
0.5,0,0,0,0,69,1,139,1,2016_Aug_09_1245,None,001,,
0.0,0,0,0,0,70,0,140,0,2016_Aug_09_1245,None,001,,
0.5,0,0,0,0,70,1,141,1,2016_Aug_09_1245,None,001,,
0.0,0,0,0,0,71,0,142,0,2016_Aug_09_1245,None,001,,
0.5,0,0,0,0,71,1,143,1,2016_Aug_09_1245,None,001,,
0.0,0,0,0,0,72,0,144,0,2016_Aug_09_1245,None,001,,
0.5,0,0,0,0,72,1,145,1,2016_Aug_09_1245,None,001,,
0.0,0,0,0,0,73,0,146,0,2016_Aug_09_1245,None,001,,
0.5,0,0,0,0,73,1,147,1,2016_Aug_09_1245,None,001,,
0.0,0,0,0,0,74,0,148,0,2016_Aug_09_1245,None,001,,
0.5,0,0,0,0,74,1,149,1,2016_Aug_09_1245,None,001,,
0.0,0,0,0,0,75,0,150,0,2016_Aug_09_1245,None,001,,
0.5,0,0,0,0,75,1,151,1,2016_Aug_09_1245,None,001,,
0.0,0,0,0,0,76,0,152,0,2016_Aug_09_1245,None,001,,
0.5,0,0,0,0,76,1,153,1,2016_Aug_09_1245,None,001,,
0.0,0,0,0,0,77,0,154,0,2016_Aug_09_1245,None,001,,
0.5,0,0,0,0,77,1,155,1,2016_Aug_09_1245,None,001,,
0.0,0,0,0,0,78,0,156,0,2016_Aug_09_1245,None,001,,
0.5,0,0,0,0,78,1,157,1,2016_Aug_09_1245,None,001,,
0.0,0,0,0,0,79,0,158,0,2016_Aug_09_1245,None,001,,
0.5,0,0,0,0,79,1,159,1,2016_Aug_09_1245,None,001,,
0.0,0,0,0,0,80,0,160,0,2016_Aug_09_1245,None,001,,
0.5,0,0,0,0,80,1,161,1,2016_Aug_09_1245,None,001,,
0.0,0,0,0,0,81,0,162,0,2016_Aug_09_1245,None,001,,
0.5,0,0,0,0,81,1,163,1,2016_Aug_09_1245,None,001,,
0.0,0,0,0,0,82,0,164,0,2016_Aug_09_1245,None,001,,
0.5,0,0,0,0,82,1,165,1,2016_Aug_09_1245,None,001,,
0.0,0,0,0,0,83,0,166,0,2016_Aug_09_1245,None,001,,
0.5,0,0,0,0,83,1,167,1,2016_Aug_09_1245,None,001,,
0.0,0,0,0,0,84,0,168,0,2016_Aug_09_1245,None,001,,
0.5,0,0,0,0,84,1,169,1,2016_Aug_09_1245,None,001,,
0.0,0,0,0,0,85,0,170,0,2016_Aug_09_1245,None,001,,
0.5,0,0,0,0,85,1,171,1,2016_Aug_09_1245,None,001,,
0.0,0,0,0,0,86,0,172,0,2016_Aug_09_1245,None,001,,
0.5,0,0,0,0,86,1,173,1,2016_Aug_09_1245,None,001,,
0.0,0,0,0,0,87,0,174,0,2016_Aug_09_1245,None,001,,
0.5,0,0,0,0,87,1,175,1,2016_Aug_09_1245,None,001,,
0.0,0,0,0,0,88,0,176,0,2016_Aug_09_1245,None,001,,
0.5,0,0,0,0,88,1,177,1,2016_Aug_09_1245,None,001,,
0.0,0,0,0,0,89,0,178,0,2016_Aug_09_1245,None,001,,
0.5,0,0,0,0,89,1,179,1,2016_Aug_09_1245,None,001,,
0.0,0,0,0,0,90,0,180,0,2016_Aug_09_1245,None,001,,
0.5,0,0,0,0,90,1,181,1,2016_Aug_09_1245,None,001,,
0.0,0,0,0,0,91,0,182,0,2016_Aug_09_1245,None,001,,
0.5,0,0,0,0,91,1,183,1,2016_Aug_09_1245,None,001,,
0.0,0,0,0,0,92,0,184,0,2016_Aug_09_1245,None,001,,
0.5,0,0,0,0,92,1,185,1,2016_Aug_09_1245,None,001,,
0.0,0,0,0,0,93,0,186,0,2016_Aug_09_1245,None,001,,
0.5,0,0,0,0,93,1,187,1,2016_Aug_09_1245,None,001,,
0.0,0,0,0,0,94,0,188,0,2016_Aug_09_1245,None,001,,
0.5,0,0,0,0,94,1,189,1,2016_Aug_09_1245,None,001,,
0.0,0,0,0,0,95,0,190,0,2016_Aug_09_1245,None,001,,
0.5,0,0,0,0,95,1,191,1,2016_Aug_09_1245,None,001,,
0.0,0,0,0,0,96,0,192,0,2016_Aug_09_1245,None,001,,
0.5,0,0,0,0,96,1,193,1,2016_Aug_09_1245,None,001,,
0.0,0,0,0,0,97,0,194,0,2016_Aug_09_1245,None,001,,
0.5,0,0,0,0,97,1,195,1,2016_Aug_09_1245,None,001,,
0.0,0,0,0,0,98,0,196,0,2016_Aug_09_1245,None,001,,
0.5,0,0,0,0,98,1,197,1,2016_Aug_09_1245,None,001,,
0.0,0,0,0,0,99,0,198,0,2016_Aug_09_1245,None,001,,
0.5,0,0,0,0,99,1,199,1,2016_Aug_09_1245,None,001,,
0.0,0,0,0,0,100,0,200,0,2016_Aug_09_1245,None,001,,
0.5,0,0,0,0,100,1,201,1,2016_Aug_09_1245,None,001,,
0.0,0,0,0,0,101,0,202,0,2016_Aug_09_1245,None,001,,
0.5,0,0,0,0,101,1,203,1,2016_Aug_09_1245,None,001,,
0.0,0,0,0,0,102,0,204,0,2016_Aug_09_1245,None,001,,
0.5,0,0,0,0,102,1,205,1,2016_Aug_09_1245,None,001,,
0.0,0,0,0,0,103,0,206,0,2016_Aug_09_1245,None,001,,
0.5,0,0,0,0,103,1,207,1,2016_Aug_09_1245,None,001,,
0.0,0,0,0,0,104,0,208,0,2016_Aug_09_1245,None,001,,
0.5,0,0,0,0,104,1,209,1,2016_Aug_09_1245,None,001,,
0.0,0,0,0,0,105,0,210,0,2016_Aug_09_1245,None,001,,
0.5,0,0,0,0,105,1,211,1,2016_Aug_09_1245,None,001,,
0.0,0,0,0,0,106,0,212,0,2016_Aug_09_1245,None,001,,
0.5,0,0,0,0,106,1,213,1,2016_Aug_09_1245,None,001,,
0.0,0,0,0,0,107,0,214,0,2016_Aug_09_1245,None,001,,
0.5,0,0,0,0,107,1,215,1,2016_Aug_09_1245,None,001,,
0.0,0,0,0,0,108,0,216,0,2016_Aug_09_1245,None,001,,
0.5,0,0,0,0,108,1,217,1,2016_Aug_09_1245,None,001,,
0.0,0,0,0,0,109,0,218,0,2016_Aug_09_1245,None,001,,
0.5,0,0,0,0,109,1,219,1,2016_Aug_09_1245,None,001,,
0.0,0,0,0,0,110,0,220,0,2016_Aug_09_1245,None,001,,
0.5,0,0,0,0,110,1,221,1,2016_Aug_09_1245,None,001,,
0.0,0,0,0,0,111,0,222,0,2016_Aug_09_1245,None,001,,
0.5,0,0,0,0,111,1,223,1,2016_Aug_09_1245,None,001,,
0.0,0,0,0,0,112,0,224,0,2016_Aug_09_1245,None,001,,
0.5,0,0,0,0,112,1,225,1,2016_Aug_09_1245,None,001,,
0.0,0,0,0,0,113,0,226,0,2016_Aug_09_1245,None,001,,
0.5,0,0,0,0,113,1,227,1,2016_Aug_09_1245,None,001,,
0.0,0,0,0,0,114,0,228,0,2016_Aug_09_1245,None,001,,
0.5,0,0,0,0,114,1,229,1,2016_Aug_09_1245,None,001,,
0.0,0,0,0,0,115,0,230,0,2016_Aug_09_1245,None,001,,
0.5,0,0,0,0,115,1,231,1,2016_Aug_09_1245,None,001,,
0.0,0,0,0,0,116,0,232,0,2016_Aug_09_1245,None,001,,
0.5,0,0,0,0,116,1,233,1,2016_Aug_09_1245,None,001,,
0.0,0,0,0,0,117,0,234,0,2016_Aug_09_1245,None,001,,
0.5,0,0,0,0,117,1,235,1,2016_Aug_09_1245,None,001,,
0.0,0,0,0,0,118,0,236,0,2016_Aug_09_1245,None,001,,
0.5,0,0,0,0,118,1,237,1,2016_Aug_09_1245,None,001,,
0.0,0,0,0,0,119,0,238,0,2016_Aug_09_1245,None,001,,
0.5,0,0,0,0,119,1,239,1,2016_Aug_09_1245,None,001,,
0.0,0,0,0,0,120,0,240,0,2016_Aug_09_1245,None,001,,
0.5,0,0,0,0,120,1,241,1,2016_Aug_09_1245,None,001,,
0.0,0,0,0,0,121,0,242,0,2016_Aug_09_1245,None,001,,
0.5,0,0,0,0,121,1,243,1,2016_Aug_09_1245,None,001,,
0.0,0,0,0,0,122,0,244,0,2016_Aug_09_1245,None,001,,
0.5,0,0,0,0,122,1,245,1,2016_Aug_09_1245,None,001,,
0.0,0,0,0,0,123,0,246,0,2016_Aug_09_1245,None,001,,
0.5,0,0,0,0,123,1,247,1,2016_Aug_09_1245,None,001,,
0.0,0,0,0,0,124,0,248,0,2016_Aug_09_1245,None,001,,
0.5,0,0,0,0,124,1,249,1,2016_Aug_09_1245,None,001,,
0.0,0,0,0,0,125,0,250,0,2016_Aug_09_1245,None,001,,
0.5,0,0,0,0,125,1,251,1,2016_Aug_09_1245,None,001,,
0.0,0,0,0,0,126,0,252,0,2016_Aug_09_1245,None,001,,
0.5,0,0,0,0,126,1,253,1,2016_Aug_09_1245,None,001,,
0.0,0,0,0,0,127,0,254,0,2016_Aug_09_1245,None,001,,
0.5,0,0,0,0,127,1,255,1,2016_Aug_09_1245,None,001,,
0.0,0,0,0,0,128,0,256,0,2016_Aug_09_1245,None,001,,
0.5,0,0,0,0,128,1,257,1,2016_Aug_09_1245,None,001,,
0.0,0,0,0,0,129,0,258,0,2016_Aug_09_1245,None,001,,
0.5,0,0,0,0,129,1,259,1,2016_Aug_09_1245,None,001,,
0.0,0,0,0,0,130,0,260,0,2016_Aug_09_1245,None,001,,
0.5,0,0,0,0,130,1,261,1,2016_Aug_09_1245,None,001,,
0.0,0,0,0,0,131,0,262,0,2016_Aug_09_1245,None,001,,
0.5,0,0,0,0,131,1,263,1,2016_Aug_09_1245,None,001,,
0.0,0,0,0,0,132,0,264,0,2016_Aug_09_1245,None,001,,
0.5,0,0,0,0,132,1,265,1,2016_Aug_09_1245,None,001,,
0.0,0,0,0,0,133,0,266,0,2016_Aug_09_1245,None,001,,
0.5,0,0,0,0,133,1,267,1,2016_Aug_09_1245,None,001,,
0.0,0,0,0,0,134,0,268,0,2016_Aug_09_1245,None,001,,
0.5,0,0,0,0,134,1,269,1,2016_Aug_09_1245,None,001,,
0.0,0,0,0,0,135,0,270,0,2016_Aug_09_1245,None,001,,
0.5,0,0,0,0,135,1,271,1,2016_Aug_09_1245,None,001,,
0.0,0,0,0,0,136,0,272,0,2016_Aug_09_1245,None,001,,
0.5,0,0,0,0,136,1,273,1,2016_Aug_09_1245,None,001,,
0.0,0,0,0,0,137,0,274,0,2016_Aug_09_1245,None,001,,
0.5,0,0,0,0,137,1,275,1,2016_Aug_09_1245,None,001,,
0.0,0,0,0,0,138,0,276,0,2016_Aug_09_1245,None,001,,
0.5,0,0,0,0,138,1,277,1,2016_Aug_09_1245,None,001,,
0.0,0,0,0,0,139,0,278,0,2016_Aug_09_1245,None,001,,
0.5,0,0,0,0,139,1,279,1,2016_Aug_09_1245,None,001,,
0.0,0,0,0,0,140,0,280,0,2016_Aug_09_1245,None,001,,
0.5,0,0,0,0,140,1,281,1,2016_Aug_09_1245,None,001,,
0.0,0,0,0,0,141,0,282,0,2016_Aug_09_1245,None,001,,
0.5,0,0,0,0,141,1,283,1,2016_Aug_09_1245,None,001,,
0.0,0,0,0,0,142,0,284,0,2016_Aug_09_1245,None,001,,
0.5,0,0,0,0,142,1,285,1,2016_Aug_09_1245,None,001,,
0.0,0,0,0,0,143,0,286,0,2016_Aug_09_1245,None,001,,
0.5,0,0,0,0,143,1,287,1,2016_Aug_09_1245,None,001,,
0.0,0,0,0,0,144,0,288,0,2016_Aug_09_1245,None,001,,
0.5,0,0,0,0,144,1,289,1,2016_Aug_09_1245,None,001,,
0.0,0,0,0,0,145,0,290,0,2016_Aug_09_1245,None,001,,
0.5,0,0,0,0,145,1,291,1,2016_Aug_09_1245,None,001,,
0.0,0,0,0,0,146,0,292,0,2016_Aug_09_1245,None,001,,
0.5,0,0,0,0,146,1,293,1,2016_Aug_09_1245,None,001,,
0.0,0,0,0,0,147,0,294,0,2016_Aug_09_1245,None,001,,
0.5,0,0,0,0,147,1,295,1,2016_Aug_09_1245,None,001,,
0.0,0,0,0,0,148,0,296,0,2016_Aug_09_1245,None,001,,
0.5,0,0,0,0,148,1,297,1,2016_Aug_09_1245,None,001,,
0.0,0,0,0,0,149,0,298,0,2016_Aug_09_1245,None,001,,
0.5,0,0,0,0,149,1,299,1,2016_Aug_09_1245,None,001,,
0.0,0,0,0,0,150,0,300,0,2016_Aug_09_1245,None,001,,
0.5,0,0,0,0,150,1,301,1,2016_Aug_09_1245,None,001,,
0.0,0,0,0,0,151,0,302,0,2016_Aug_09_1245,None,001,,
0.5,0,0,0,0,151,1,303,1,2016_Aug_09_1245,None,001,,
0.0,0,0,0,0,152,0,304,0,2016_Aug_09_1245,None,001,,
0.5,0,0,0,0,152,1,305,1,2016_Aug_09_1245,None,001,,
0.0,0,0,0,0,153,0,306,0,2016_Aug_09_1245,None,001,,
0.5,0,0,0,0,153,1,307,1,2016_Aug_09_1245,None,001,,
0.0,0,0,0,0,154,0,308,0,2016_Aug_09_1245,None,001,,
0.5,0,0,0,0,154,1,309,1,2016_Aug_09_1245,None,001,,
0.0,0,0,0,0,155,0,310,0,2016_Aug_09_1245,None,001,,
0.5,0,0,0,0,155,1,311,1,2016_Aug_09_1245,None,001,,
0.0,0,0,0,0,156,0,312,0,2016_Aug_09_1245,None,001,,
0.5,0,0,0,0,156,1,313,1,2016_Aug_09_1245,None,001,,
0.0,0,0,0,0,157,0,314,0,2016_Aug_09_1245,None,001,,
0.5,0,0,0,0,157,1,315,1,2016_Aug_09_1245,None,001,,
0.0,0,0,0,0,158,0,316,0,2016_Aug_09_1245,None,001,,
0.5,0,0,0,0,158,1,317,1,2016_Aug_09_1245,None,001,,
0.0,0,0,0,0,159,0,318,0,2016_Aug_09_1245,None,001,,
0.5,0,0,0,0,159,1,319,1,2016_Aug_09_1245,None,001,,
0.0,0,0,0,0,160,0,320,0,2016_Aug_09_1245,None,001,,
0.5,0,0,0,0,160,1,321,1,2016_Aug_09_1245,None,001,,
0.0,0,0,0,0,161,0,322,0,2016_Aug_09_1245,None,001,,
0.5,0,0,0,0,161,1,323,1,2016_Aug_09_1245,None,001,,
0.0,0,0,0,0,162,0,324,0,2016_Aug_09_1245,None,001,,
0.5,0,0,0,0,162,1,325,1,2016_Aug_09_1245,None,001,,
0.0,0,0,0,0,163,0,326,0,2016_Aug_09_1245,None,001,,
0.5,0,0,0,0,163,1,327,1,2016_Aug_09_1245,None,001,,
0.0,0,0,0,0,164,0,328,0,2016_Aug_09_1245,None,001,,
0.5,0,0,0,0,164,1,329,1,2016_Aug_09_1245,None,001,,
0.0,0,0,0,0,165,0,330,0,2016_Aug_09_1245,None,001,,
0.5,0,0,0,0,165,1,331,1,2016_Aug_09_1245,None,001,,
0.0,0,0,0,0,166,0,332,0,2016_Aug_09_1245,None,001,,
0.5,0,0,0,0,166,1,333,1,2016_Aug_09_1245,None,001,,
0.0,0,0,0,0,167,0,334,0,2016_Aug_09_1245,None,001,,
0.5,0,0,0,0,167,1,335,1,2016_Aug_09_1245,None,001,,
0.0,0,0,0,0,168,0,336,0,2016_Aug_09_1245,None,001,,
0.5,0,0,0,0,168,1,337,1,2016_Aug_09_1245,None,001,,
0.0,0,0,0,0,169,0,338,0,2016_Aug_09_1245,None,001,,
0.5,0,0,0,0,169,1,339,1,2016_Aug_09_1245,None,001,,
0.0,0,0,0,0,170,0,340,0,2016_Aug_09_1245,None,001,,
0.5,0,0,0,0,170,1,341,1,2016_Aug_09_1245,None,001,,
0.0,0,0,0,0,171,0,342,0,2016_Aug_09_1245,None,001,,
0.5,0,0,0,0,171,1,343,1,2016_Aug_09_1245,None,001,,
0.0,0,0,0,0,172,0,344,0,2016_Aug_09_1245,None,001,,
0.5,0,0,0,0,172,1,345,1,2016_Aug_09_1245,None,001,,
0.0,0,0,0,0,173,0,346,0,2016_Aug_09_1245,None,001,,
0.5,0,0,0,0,173,1,347,1,2016_Aug_09_1245,None,001,,
0.0,0,0,0,0,174,0,348,0,2016_Aug_09_1245,None,001,,
0.5,0,0,0,0,174,1,349,1,2016_Aug_09_1245,None,001,,
0.0,0,0,0,0,175,0,350,0,2016_Aug_09_1245,None,001,,
0.5,0,0,0,0,175,1,351,1,2016_Aug_09_1245,None,001,,
0.0,0,0,0,0,176,0,352,0,2016_Aug_09_1245,None,001,,
0.5,0,0,0,0,176,1,353,1,2016_Aug_09_1245,None,001,,
0.0,0,0,0,0,177,0,354,0,2016_Aug_09_1245,None,001,,
0.5,0,0,0,0,177,1,355,1,2016_Aug_09_1245,None,001,,
0.0,0,0,0,0,178,0,356,0,2016_Aug_09_1245,None,001,,
0.5,0,0,0,0,178,1,357,1,2016_Aug_09_1245,None,001,,
0.0,0,0,0,0,179,0,358,0,2016_Aug_09_1245,None,001,,
0.5,0,0,0,0,179,1,359,1,2016_Aug_09_1245,None,001,,
0.0,0,0,0,0,180,0,360,0,2016_Aug_09_1245,None,001,,
0.5,0,0,0,0,180,1,361,1,2016_Aug_09_1245,None,001,,
0.0,0,0,0,0,181,0,362,0,2016_Aug_09_1245,None,001,,
0.5,0,0,0,0,181,1,363,1,2016_Aug_09_1245,None,001,,
0.0,0,0,0,0,182,0,364,0,2016_Aug_09_1245,None,001,,
0.5,0,0,0,0,182,1,365,1,2016_Aug_09_1245,None,001,,
0.0,0,0,0,0,183,0,366,0,2016_Aug_09_1245,None,001,,
0.5,0,0,0,0,183,1,367,1,2016_Aug_09_1245,None,001,,
0.0,0,0,0,0,184,0,368,0,2016_Aug_09_1245,None,001,,
0.5,0,0,0,0,184,1,369,1,2016_Aug_09_1245,None,001,,
0.0,0,0,0,0,185,0,370,0,2016_Aug_09_1245,None,001,,
0.5,0,0,0,0,185,1,371,1,2016_Aug_09_1245,None,001,,
0.0,0,0,0,0,186,0,372,0,2016_Aug_09_1245,None,001,,
0.5,0,0,0,0,186,1,373,1,2016_Aug_09_1245,None,001,,
0.0,0,0,0,0,187,0,374,0,2016_Aug_09_1245,None,001,,
0.5,0,0,0,0,187,1,375,1,2016_Aug_09_1245,None,001,,
0.0,0,0,0,0,188,0,376,0,2016_Aug_09_1245,None,001,,
0.5,0,0,0,0,188,1,377,1,2016_Aug_09_1245,None,001,,
0.0,0,0,0,0,189,0,378,0,2016_Aug_09_1245,None,001,,
0.5,0,0,0,0,189,1,379,1,2016_Aug_09_1245,None,001,,
0.0,0,0,0,0,190,0,380,0,2016_Aug_09_1245,None,001,,
0.5,0,0,0,0,190,1,381,1,2016_Aug_09_1245,None,001,,
0.0,0,0,0,0,191,0,382,0,2016_Aug_09_1245,None,001,,
0.5,0,0,0,0,191,1,383,1,2016_Aug_09_1245,None,001,,
0.0,0,0,0,0,192,0,384,0,2016_Aug_09_1245,None,001,,
0.5,0,0,0,0,192,1,385,1,2016_Aug_09_1245,None,001,,
0.0,0,0,0,0,193,0,386,0,2016_Aug_09_1245,None,001,,
0.5,0,0,0,0,193,1,387,1,2016_Aug_09_1245,None,001,,
0.0,0,0,0,0,194,0,388,0,2016_Aug_09_1245,None,001,,
0.5,0,0,0,0,194,1,389,1,2016_Aug_09_1245,None,001,,
0.0,0,0,0,0,195,0,390,0,2016_Aug_09_1245,None,001,,
0.5,0,0,0,0,195,1,391,1,2016_Aug_09_1245,None,001,,
0.0,0,0,0,0,196,0,392,0,2016_Aug_09_1245,None,001,,
0.5,0,0,0,0,196,1,393,1,2016_Aug_09_1245,None,001,,
0.0,0,0,0,0,197,0,394,0,2016_Aug_09_1245,None,001,,
0.5,0,0,0,0,197,1,395,1,2016_Aug_09_1245,None,001,,
0.0,0,0,0,0,198,0,396,0,2016_Aug_09_1245,None,001,,
0.5,0,0,0,0,198,1,397,1,2016_Aug_09_1245,None,001,,
0.0,0,0,0,0,199,0,398,0,2016_Aug_09_1245,None,001,,
0.5,0,0,0,0,199,1,399,1,2016_Aug_09_1245,None,001,,
0.0,0,0,0,0,200,0,400,0,2016_Aug_09_1245,None,001,,
0.5,0,0,0,0,200,1,401,1,2016_Aug_09_1245,None,001,,
0.0,0,0,0,0,201,0,402,0,2016_Aug_09_1245,None,001,,
0.5,0,0,0,0,201,1,403,1,2016_Aug_09_1245,None,001,,
0.0,0,0,0,0,202,0,404,0,2016_Aug_09_1245,None,001,,
0.5,0,0,0,0,202,1,405,1,2016_Aug_09_1245,None,001,,
0.0,0,0,0,0,203,0,406,0,2016_Aug_09_1245,None,001,,
0.5,0,0,0,0,203,1,407,1,2016_Aug_09_1245,None,001,,
0.0,0,0,0,0,204,0,408,0,2016_Aug_09_1245,None,001,,
0.5,0,0,0,0,204,1,409,1,2016_Aug_09_1245,None,001,,
0.0,0,0,0,0,205,0,410,0,2016_Aug_09_1245,None,001,,
0.5,0,0,0,0,205,1,411,1,2016_Aug_09_1245,None,001,,
0.0,0,0,0,0,206,0,412,0,2016_Aug_09_1245,None,001,,
0.5,0,0,0,0,206,1,413,1,2016_Aug_09_1245,None,001,,
0.0,0,0,0,0,207,0,414,0,2016_Aug_09_1245,None,001,,
0.5,0,0,0,0,207,1,415,1,2016_Aug_09_1245,None,001,,
0.0,0,0,0,0,208,0,416,0,2016_Aug_09_1245,None,001,,
0.5,0,0,0,0,208,1,417,1,2016_Aug_09_1245,None,001,,
0.0,0,0,0,0,209,0,418,0,2016_Aug_09_1245,None,001,,
0.5,0,0,0,0,209,1,419,1,2016_Aug_09_1245,None,001,,
0.0,0,0,0,0,210,0,420,0,2016_Aug_09_1245,None,001,,
0.5,0,0,0,0,210,1,421,1,2016_Aug_09_1245,None,001,,
0.0,0,0,0,0,211,0,422,0,2016_Aug_09_1245,None,001,,
0.5,0,0,0,0,211,1,423,1,2016_Aug_09_1245,None,001,,
0.0,0,0,0,0,212,0,424,0,2016_Aug_09_1245,None,001,,
0.5,0,0,0,0,212,1,425,1,2016_Aug_09_1245,None,001,,
0.0,0,0,0,0,213,0,426,0,2016_Aug_09_1245,None,001,,
0.5,0,0,0,0,213,1,427,1,2016_Aug_09_1245,None,001,,
0.0,0,0,0,0,214,0,428,0,2016_Aug_09_1245,None,001,,
0.5,0,0,0,0,214,1,429,1,2016_Aug_09_1245,None,001,,
0.0,0,0,0,0,215,0,430,0,2016_Aug_09_1245,None,001,,
0.5,0,0,0,0,215,1,431,1,2016_Aug_09_1245,None,001,,
0.0,0,0,0,0,216,0,432,0,2016_Aug_09_1245,None,001,,
0.5,0,0,0,0,216,1,433,1,2016_Aug_09_1245,None,001,,
0.0,0,0,0,0,217,0,434,0,2016_Aug_09_1245,None,001,,
0.5,0,0,0,0,217,1,435,1,2016_Aug_09_1245,None,001,,
0.0,0,0,0,0,218,0,436,0,2016_Aug_09_1245,None,001,,
0.5,0,0,0,0,218,1,437,1,2016_Aug_09_1245,None,001,,
0.0,0,0,0,0,219,0,438,0,2016_Aug_09_1245,None,001,,
0.5,0,0,0,0,219,1,439,1,2016_Aug_09_1245,None,001,,
0.0,0,0,0,0,220,0,440,0,2016_Aug_09_1245,None,001,,
0.5,0,0,0,0,220,1,441,1,2016_Aug_09_1245,None,001,,
0.0,0,0,0,0,221,0,442,0,2016_Aug_09_1245,None,001,,
0.5,0,0,0,0,221,1,443,1,2016_Aug_09_1245,None,001,,
0.0,0,0,0,0,222,0,444,0,2016_Aug_09_1245,None,001,,
0.5,0,0,0,0,222,1,445,1,2016_Aug_09_1245,None,001,,
0.0,0,0,0,0,223,0,446,0,2016_Aug_09_1245,None,001,,
0.5,0,0,0,0,223,1,447,1,2016_Aug_09_1245,None,001,,
0.0,0,0,0,0,224,0,448,0,2016_Aug_09_1245,None,001,,
0.5,0,0,0,0,224,1,449,1,2016_Aug_09_1245,None,001,,
0.0,0,0,0,0,225,0,450,0,2016_Aug_09_1245,None,001,,
0.5,0,0,0,0,225,1,451,1,2016_Aug_09_1245,None,001,,
0.0,0,0,0,0,226,0,452,0,2016_Aug_09_1245,None,001,,
0.5,0,0,0,0,226,1,453,1,2016_Aug_09_1245,None,001,,
0.0,0,0,0,0,227,0,454,0,2016_Aug_09_1245,None,001,,
0.5,0,0,0,0,227,1,455,1,2016_Aug_09_1245,None,001,,
0.0,0,0,0,0,228,0,456,0,2016_Aug_09_1245,None,001,,
0.5,0,0,0,0,228,1,457,1,2016_Aug_09_1245,None,001,,
0.0,0,0,0,0,229,0,458,0,2016_Aug_09_1245,None,001,,
0.5,0,0,0,0,229,1,459,1,2016_Aug_09_1245,None,001,,
0.0,0,0,0,0,230,0,460,0,2016_Aug_09_1245,None,001,,
0.5,0,0,0,0,230,1,461,1,2016_Aug_09_1245,None,001,,
0.0,0,0,0,0,231,0,462,0,2016_Aug_09_1245,None,001,,
0.5,0,0,0,0,231,1,463,1,2016_Aug_09_1245,None,001,,
0.0,0,0,0,0,232,0,464,0,2016_Aug_09_1245,None,001,,
0.5,0,0,0,0,232,1,465,1,2016_Aug_09_1245,None,001,,
0.0,0,0,0,0,233,0,466,0,2016_Aug_09_1245,None,001,,
0.5,0,0,0,0,233,1,467,1,2016_Aug_09_1245,None,001,,
0.0,0,0,0,0,234,0,468,0,2016_Aug_09_1245,None,001,,
0.5,0,0,0,0,234,1,469,1,2016_Aug_09_1245,None,001,,
0.0,0,0,0,0,235,0,470,0,2016_Aug_09_1245,None,001,,
0.5,0,0,0,0,235,1,471,1,2016_Aug_09_1245,None,001,,
0.0,0,0,0,0,236,0,472,0,2016_Aug_09_1245,None,001,,
0.5,0,0,0,0,236,1,473,1,2016_Aug_09_1245,None,001,,
0.0,0,0,0,0,237,0,474,0,2016_Aug_09_1245,None,001,,
0.5,0,0,0,0,237,1,475,1,2016_Aug_09_1245,None,001,,
0.0,0,0,0,0,238,0,476,0,2016_Aug_09_1245,None,001,,
0.5,0,0,0,0,238,1,477,1,2016_Aug_09_1245,None,001,,
0.0,0,0,0,0,239,0,478,0,2016_Aug_09_1245,None,001,,
0.5,0,0,0,0,239,1,479,1,2016_Aug_09_1245,None,001,,
0.0,0,0,0,0,240,0,480,0,2016_Aug_09_1245,None,001,,
0.5,0,0,0,0,240,1,481,1,2016_Aug_09_1245,None,001,,
0.0,0,0,0,0,241,0,482,0,2016_Aug_09_1245,None,001,,
0.5,0,0,0,0,241,1,483,1,2016_Aug_09_1245,None,001,,
0.0,0,0,0,0,242,0,484,0,2016_Aug_09_1245,None,001,,
0.5,0,0,0,0,242,1,485,1,2016_Aug_09_1245,None,001,,
0.0,0,0,0,0,243,0,486,0,2016_Aug_09_1245,None,001,,
0.5,0,0,0,0,243,1,487,1,2016_Aug_09_1245,None,001,,
0.0,0,0,0,0,244,0,488,0,2016_Aug_09_1245,None,001,,
0.5,0,0,0,0,244,1,489,1,2016_Aug_09_1245,None,001,,
0.0,0,0,0,0,245,0,490,0,2016_Aug_09_1245,None,001,,
0.5,0,0,0,0,245,1,491,1,2016_Aug_09_1245,None,001,,
0.0,0,0,0,0,246,0,492,0,2016_Aug_09_1245,None,001,,
0.5,0,0,0,0,246,1,493,1,2016_Aug_09_1245,None,001,,
0.0,0,0,0,0,247,0,494,0,2016_Aug_09_1245,None,001,,
0.5,0,0,0,0,247,1,495,1,2016_Aug_09_1245,None,001,,
0.0,0,0,0,0,248,0,496,0,2016_Aug_09_1245,None,001,,
0.5,0,0,0,0,248,1,497,1,2016_Aug_09_1245,None,001,,
0.0,0,0,0,0,249,0,498,0,2016_Aug_09_1245,None,001,,
0.5,0,0,0,0,249,1,499,1,2016_Aug_09_1245,None,001,,
0.0,0,0,0,0,250,0,500,0,2016_Aug_09_1245,None,001,,
0.5,0,0,0,0,250,1,501,1,2016_Aug_09_1245,None,001,,
0.0,0,0,0,0,251,0,502,0,2016_Aug_09_1245,None,001,,
0.5,0,0,0,0,251,1,503,1,2016_Aug_09_1245,None,001,,
0.0,0,0,0,0,252,0,504,0,2016_Aug_09_1245,None,001,,
0.5,0,0,0,0,252,1,505,1,2016_Aug_09_1245,None,001,,
0.0,0,0,0,0,253,0,506,0,2016_Aug_09_1245,None,001,,
0.5,0,0,0,0,253,1,507,1,2016_Aug_09_1245,None,001,,
0.0,0,0,0,0,254,0,508,0,2016_Aug_09_1245,None,001,,
0.5,0,0,0,0,254,1,509,1,2016_Aug_09_1245,None,001,,
0.0,0,0,0,0,255,0,510,0,2016_Aug_09_1245,None,001,,
0.5,0,0,0,0,255,1,511,1,2016_Aug_09_1245,None,001,,
0.0,0,0,0,0,256,0,512,0,2016_Aug_09_1245,None,001,,
0.5,0,0,0,0,256,1,513,1,2016_Aug_09_1245,None,001,,
0.0,0,0,0,0,257,0,514,0,2016_Aug_09_1245,None,001,,
0.5,0,0,0,0,257,1,515,1,2016_Aug_09_1245,None,001,,
0.0,0,0,0,0,258,0,516,0,2016_Aug_09_1245,None,001,,
0.5,0,0,0,0,258,1,517,1,2016_Aug_09_1245,None,001,,
0.0,0,0,0,0,259,0,518,0,2016_Aug_09_1245,None,001,,
0.5,0,0,0,0,259,1,519,1,2016_Aug_09_1245,None,001,,
0.0,0,0,0,0,260,0,520,0,2016_Aug_09_1245,None,001,,
0.5,0,0,0,0,260,1,521,1,2016_Aug_09_1245,None,001,,
0.0,0,0,0,0,261,0,522,0,2016_Aug_09_1245,None,001,,
0.5,0,0,0,0,261,1,523,1,2016_Aug_09_1245,None,001,,
0.0,0,0,0,0,262,0,524,0,2016_Aug_09_1245,None,001,,
0.5,0,0,0,0,262,1,525,1,2016_Aug_09_1245,None,001,,
0.0,0,0,0,0,263,0,526,0,2016_Aug_09_1245,None,001,,
0.5,0,0,0,0,263,1,527,1,2016_Aug_09_1245,None,001,,
0.0,0,0,0,0,264,0,528,0,2016_Aug_09_1245,None,001,,
0.5,0,0,0,0,264,1,529,1,2016_Aug_09_1245,None,001,,
0.0,0,0,0,0,265,0,530,0,2016_Aug_09_1245,None,001,,
0.5,0,0,0,0,265,1,531,1,2016_Aug_09_1245,None,001,,
0.0,0,0,0,0,266,0,532,0,2016_Aug_09_1245,None,001,,
0.5,0,0,0,0,266,1,533,1,2016_Aug_09_1245,None,001,,
0.0,0,0,0,0,267,0,534,0,2016_Aug_09_1245,None,001,,
0.5,0,0,0,0,267,1,535,1,2016_Aug_09_1245,None,001,,
0.0,0,0,0,0,268,0,536,0,2016_Aug_09_1245,None,001,,
0.5,0,0,0,0,268,1,537,1,2016_Aug_09_1245,None,001,,
0.0,0,0,0,0,269,0,538,0,2016_Aug_09_1245,None,001,,
0.5,0,0,0,0,269,1,539,1,2016_Aug_09_1245,None,001,,
0.0,0,0,0,0,270,0,540,0,2016_Aug_09_1245,None,001,,
0.5,0,0,0,0,270,1,541,1,2016_Aug_09_1245,None,001,,
0.0,0,0,0,0,271,0,542,0,2016_Aug_09_1245,None,001,,
0.5,0,0,0,0,271,1,543,1,2016_Aug_09_1245,None,001,,
0.0,0,0,0,0,272,0,544,0,2016_Aug_09_1245,None,001,,
0.5,0,0,0,0,272,1,545,1,2016_Aug_09_1245,None,001,,
0.0,0,0,0,0,273,0,546,0,2016_Aug_09_1245,None,001,,
0.5,0,0,0,0,273,1,547,1,2016_Aug_09_1245,None,001,,
0.0,0,0,0,0,274,0,548,0,2016_Aug_09_1245,None,001,,
0.5,0,0,0,0,274,1,549,1,2016_Aug_09_1245,None,001,,
0.0,0,0,0,0,275,0,550,0,2016_Aug_09_1245,None,001,,
0.5,0,0,0,0,275,1,551,1,2016_Aug_09_1245,None,001,,
0.0,0,0,0,0,276,0,552,0,2016_Aug_09_1245,None,001,,
0.5,0,0,0,0,276,1,553,1,2016_Aug_09_1245,None,001,,
0.0,0,0,0,0,277,0,554,0,2016_Aug_09_1245,None,001,,
0.5,0,0,0,0,277,1,555,1,2016_Aug_09_1245,None,001,,
0.0,0,0,0,0,278,0,556,0,2016_Aug_09_1245,None,001,,
0.5,0,0,0,0,278,1,557,1,2016_Aug_09_1245,None,001,,
0.0,0,0,0,0,279,0,558,0,2016_Aug_09_1245,None,001,,
0.5,0,0,0,0,279,1,559,1,2016_Aug_09_1245,None,001,,
0.0,0,0,0,0,280,0,560,0,2016_Aug_09_1245,None,001,,
0.5,0,0,0,0,280,1,561,1,2016_Aug_09_1245,None,001,,
0.0,0,0,0,0,281,0,562,0,2016_Aug_09_1245,None,001,,
0.5,0,0,0,0,281,1,563,1,2016_Aug_09_1245,None,001,,
0.0,0,0,0,0,282,0,564,0,2016_Aug_09_1245,None,001,,
0.5,0,0,0,0,282,1,565,1,2016_Aug_09_1245,None,001,,
0.0,0,0,0,0,283,0,566,0,2016_Aug_09_1245,None,001,,
0.5,0,0,0,0,283,1,567,1,2016_Aug_09_1245,None,001,,
0.0,0,0,0,0,284,0,568,0,2016_Aug_09_1245,None,001,,
0.5,0,0,0,0,284,1,569,1,2016_Aug_09_1245,None,001,,
0.0,0,0,0,0,285,0,570,0,2016_Aug_09_1245,None,001,,
0.5,0,0,0,0,285,1,571,1,2016_Aug_09_1245,None,001,,
0.0,0,0,0,0,286,0,572,0,2016_Aug_09_1245,None,001,,
0.5,0,0,0,0,286,1,573,1,2016_Aug_09_1245,None,001,,
0.0,0,0,0,0,287,0,574,0,2016_Aug_09_1245,None,001,,
0.5,0,0,0,0,287,1,575,1,2016_Aug_09_1245,None,001,,
,0,0,0,0,,,,,2016_Aug_09_1245,None,001,,
0.0,1,0,1,0,0,0,0,0,2016_Aug_09_1245,None,001,,
0.5,1,0,1,0,0,1,1,1,2016_Aug_09_1245,None,001,,
0.0,1,0,1,0,1,0,2,0,2016_Aug_09_1245,None,001,,
0.5,1,0,1,0,1,1,3,1,2016_Aug_09_1245,None,001,,
0.0,1,0,1,0,2,0,4,0,2016_Aug_09_1245,None,001,,
0.5,1,0,1,0,2,1,5,1,2016_Aug_09_1245,None,001,,
0.0,1,0,1,0,3,0,6,0,2016_Aug_09_1245,None,001,,
0.5,1,0,1,0,3,1,7,1,2016_Aug_09_1245,None,001,,
0.0,1,0,1,0,4,0,8,0,2016_Aug_09_1245,None,001,,
0.5,1,0,1,0,4,1,9,1,2016_Aug_09_1245,None,001,,
0.0,1,0,1,0,5,0,10,0,2016_Aug_09_1245,None,001,,
0.5,1,0,1,0,5,1,11,1,2016_Aug_09_1245,None,001,,
0.0,1,0,1,0,6,0,12,0,2016_Aug_09_1245,None,001,,
0.5,1,0,1,0,6,1,13,1,2016_Aug_09_1245,None,001,,
0.0,1,0,1,0,7,0,14,0,2016_Aug_09_1245,None,001,,
0.5,1,0,1,0,7,1,15,1,2016_Aug_09_1245,None,001,,
0.0,1,0,1,0,8,0,16,0,2016_Aug_09_1245,None,001,,
0.5,1,0,1,0,8,1,17,1,2016_Aug_09_1245,None,001,,
0.0,1,0,1,0,9,0,18,0,2016_Aug_09_1245,None,001,,
0.5,1,0,1,0,9,1,19,1,2016_Aug_09_1245,None,001,,
0.0,1,0,1,0,10,0,20,0,2016_Aug_09_1245,None,001,,
0.5,1,0,1,0,10,1,21,1,2016_Aug_09_1245,None,001,,
0.0,1,0,1,0,11,0,22,0,2016_Aug_09_1245,None,001,,
0.5,1,0,1,0,11,1,23,1,2016_Aug_09_1245,None,001,,
0.0,1,0,1,0,12,0,24,0,2016_Aug_09_1245,None,001,,
0.5,1,0,1,0,12,1,25,1,2016_Aug_09_1245,None,001,,
0.0,1,0,1,0,13,0,26,0,2016_Aug_09_1245,None,001,,
0.5,1,0,1,0,13,1,27,1,2016_Aug_09_1245,None,001,,
0.0,1,0,1,0,14,0,28,0,2016_Aug_09_1245,None,001,,
0.5,1,0,1,0,14,1,29,1,2016_Aug_09_1245,None,001,,
0.0,1,0,1,0,15,0,30,0,2016_Aug_09_1245,None,001,,
0.5,1,0,1,0,15,1,31,1,2016_Aug_09_1245,None,001,,
0.0,1,0,1,0,16,0,32,0,2016_Aug_09_1245,None,001,,
0.5,1,0,1,0,16,1,33,1,2016_Aug_09_1245,None,001,,
0.0,1,0,1,0,17,0,34,0,2016_Aug_09_1245,None,001,,
0.5,1,0,1,0,17,1,35,1,2016_Aug_09_1245,None,001,,
0.0,1,0,1,0,18,0,36,0,2016_Aug_09_1245,None,001,,
0.5,1,0,1,0,18,1,37,1,2016_Aug_09_1245,None,001,,
0.0,1,0,1,0,19,0,38,0,2016_Aug_09_1245,None,001,,
0.5,1,0,1,0,19,1,39,1,2016_Aug_09_1245,None,001,,
0.0,1,0,1,0,20,0,40,0,2016_Aug_09_1245,None,001,,
0.5,1,0,1,0,20,1,41,1,2016_Aug_09_1245,None,001,,
0.0,1,0,1,0,21,0,42,0,2016_Aug_09_1245,None,001,,
0.5,1,0,1,0,21,1,43,1,2016_Aug_09_1245,None,001,,
0.0,1,0,1,0,22,0,44,0,2016_Aug_09_1245,None,001,,
0.5,1,0,1,0,22,1,45,1,2016_Aug_09_1245,None,001,,
0.0,1,0,1,0,23,0,46,0,2016_Aug_09_1245,None,001,,
0.5,1,0,1,0,23,1,47,1,2016_Aug_09_1245,None,001,,
0.0,1,0,1,0,24,0,48,0,2016_Aug_09_1245,None,001,,
0.5,1,0,1,0,24,1,49,1,2016_Aug_09_1245,None,001,,
0.0,1,0,1,0,25,0,50,0,2016_Aug_09_1245,None,001,,
0.5,1,0,1,0,25,1,51,1,2016_Aug_09_1245,None,001,,
0.0,1,0,1,0,26,0,52,0,2016_Aug_09_1245,None,001,,
0.5,1,0,1,0,26,1,53,1,2016_Aug_09_1245,None,001,,
0.0,1,0,1,0,27,0,54,0,2016_Aug_09_1245,None,001,,
0.5,1,0,1,0,27,1,55,1,2016_Aug_09_1245,None,001,,
0.0,1,0,1,0,28,0,56,0,2016_Aug_09_1245,None,001,,
0.5,1,0,1,0,28,1,57,1,2016_Aug_09_1245,None,001,,
0.0,1,0,1,0,29,0,58,0,2016_Aug_09_1245,None,001,,
0.5,1,0,1,0,29,1,59,1,2016_Aug_09_1245,None,001,,
0.0,1,0,1,0,30,0,60,0,2016_Aug_09_1245,None,001,,
0.5,1,0,1,0,30,1,61,1,2016_Aug_09_1245,None,001,,
0.0,1,0,1,0,31,0,62,0,2016_Aug_09_1245,None,001,,
0.5,1,0,1,0,31,1,63,1,2016_Aug_09_1245,None,001,,
0.0,1,0,1,0,32,0,64,0,2016_Aug_09_1245,None,001,,
0.5,1,0,1,0,32,1,65,1,2016_Aug_09_1245,None,001,,
0.0,1,0,1,0,33,0,66,0,2016_Aug_09_1245,None,001,,
0.5,1,0,1,0,33,1,67,1,2016_Aug_09_1245,None,001,,
0.0,1,0,1,0,34,0,68,0,2016_Aug_09_1245,None,001,,
0.5,1,0,1,0,34,1,69,1,2016_Aug_09_1245,None,001,,
0.0,1,0,1,0,35,0,70,0,2016_Aug_09_1245,None,001,,
0.5,1,0,1,0,35,1,71,1,2016_Aug_09_1245,None,001,,
0.0,1,0,1,0,36,0,72,0,2016_Aug_09_1245,None,001,,
0.5,1,0,1,0,36,1,73,1,2016_Aug_09_1245,None,001,,
0.0,1,0,1,0,37,0,74,0,2016_Aug_09_1245,None,001,,
0.5,1,0,1,0,37,1,75,1,2016_Aug_09_1245,None,001,,
0.0,1,0,1,0,38,0,76,0,2016_Aug_09_1245,None,001,,
0.5,1,0,1,0,38,1,77,1,2016_Aug_09_1245,None,001,,
0.0,1,0,1,0,39,0,78,0,2016_Aug_09_1245,None,001,,
0.5,1,0,1,0,39,1,79,1,2016_Aug_09_1245,None,001,,
0.0,1,0,1,0,40,0,80,0,2016_Aug_09_1245,None,001,,
0.5,1,0,1,0,40,1,81,1,2016_Aug_09_1245,None,001,,
0.0,1,0,1,0,41,0,82,0,2016_Aug_09_1245,None,001,,
0.5,1,0,1,0,41,1,83,1,2016_Aug_09_1245,None,001,,
0.0,1,0,1,0,42,0,84,0,2016_Aug_09_1245,None,001,,
0.5,1,0,1,0,42,1,85,1,2016_Aug_09_1245,None,001,,
0.0,1,0,1,0,43,0,86,0,2016_Aug_09_1245,None,001,,
0.5,1,0,1,0,43,1,87,1,2016_Aug_09_1245,None,001,,
0.0,1,0,1,0,44,0,88,0,2016_Aug_09_1245,None,001,,
0.5,1,0,1,0,44,1,89,1,2016_Aug_09_1245,None,001,,
0.0,1,0,1,0,45,0,90,0,2016_Aug_09_1245,None,001,,
0.5,1,0,1,0,45,1,91,1,2016_Aug_09_1245,None,001,,
0.0,1,0,1,0,46,0,92,0,2016_Aug_09_1245,None,001,,
0.5,1,0,1,0,46,1,93,1,2016_Aug_09_1245,None,001,,
0.0,1,0,1,0,47,0,94,0,2016_Aug_09_1245,None,001,,
0.5,1,0,1,0,47,1,95,1,2016_Aug_09_1245,None,001,,
0.0,1,0,1,0,48,0,96,0,2016_Aug_09_1245,None,001,,
0.5,1,0,1,0,48,1,97,1,2016_Aug_09_1245,None,001,,
0.0,1,0,1,0,49,0,98,0,2016_Aug_09_1245,None,001,,
0.5,1,0,1,0,49,1,99,1,2016_Aug_09_1245,None,001,,
0.0,1,0,1,0,50,0,100,0,2016_Aug_09_1245,None,001,,
0.5,1,0,1,0,50,1,101,1,2016_Aug_09_1245,None,001,,
0.0,1,0,1,0,51,0,102,0,2016_Aug_09_1245,None,001,,
0.5,1,0,1,0,51,1,103,1,2016_Aug_09_1245,None,001,,
0.0,1,0,1,0,52,0,104,0,2016_Aug_09_1245,None,001,,
0.5,1,0,1,0,52,1,105,1,2016_Aug_09_1245,None,001,,
0.0,1,0,1,0,53,0,106,0,2016_Aug_09_1245,None,001,,
0.5,1,0,1,0,53,1,107,1,2016_Aug_09_1245,None,001,,
0.0,1,0,1,0,54,0,108,0,2016_Aug_09_1245,None,001,,
0.5,1,0,1,0,54,1,109,1,2016_Aug_09_1245,None,001,,
0.0,1,0,1,0,55,0,110,0,2016_Aug_09_1245,None,001,,
0.5,1,0,1,0,55,1,111,1,2016_Aug_09_1245,None,001,,
0.0,1,0,1,0,56,0,112,0,2016_Aug_09_1245,None,001,,
0.5,1,0,1,0,56,1,113,1,2016_Aug_09_1245,None,001,,
0.0,1,0,1,0,57,0,114,0,2016_Aug_09_1245,None,001,,
0.5,1,0,1,0,57,1,115,1,2016_Aug_09_1245,None,001,,
0.0,1,0,1,0,58,0,116,0,2016_Aug_09_1245,None,001,,
0.5,1,0,1,0,58,1,117,1,2016_Aug_09_1245,None,001,,
0.0,1,0,1,0,59,0,118,0,2016_Aug_09_1245,None,001,,
0.5,1,0,1,0,59,1,119,1,2016_Aug_09_1245,None,001,,
0.0,1,0,1,0,60,0,120,0,2016_Aug_09_1245,None,001,,
0.5,1,0,1,0,60,1,121,1,2016_Aug_09_1245,None,001,,
0.0,1,0,1,0,61,0,122,0,2016_Aug_09_1245,None,001,,
0.5,1,0,1,0,61,1,123,1,2016_Aug_09_1245,None,001,,
0.0,1,0,1,0,62,0,124,0,2016_Aug_09_1245,None,001,,
0.5,1,0,1,0,62,1,125,1,2016_Aug_09_1245,None,001,,
0.0,1,0,1,0,63,0,126,0,2016_Aug_09_1245,None,001,,
0.5,1,0,1,0,63,1,127,1,2016_Aug_09_1245,None,001,,
0.0,1,0,1,0,64,0,128,0,2016_Aug_09_1245,None,001,,
0.5,1,0,1,0,64,1,129,1,2016_Aug_09_1245,None,001,,
0.0,1,0,1,0,65,0,130,0,2016_Aug_09_1245,None,001,,
0.5,1,0,1,0,65,1,131,1,2016_Aug_09_1245,None,001,,
0.0,1,0,1,0,66,0,132,0,2016_Aug_09_1245,None,001,,
0.5,1,0,1,0,66,1,133,1,2016_Aug_09_1245,None,001,,
0.0,1,0,1,0,67,0,134,0,2016_Aug_09_1245,None,001,,
0.5,1,0,1,0,67,1,135,1,2016_Aug_09_1245,None,001,,
0.0,1,0,1,0,68,0,136,0,2016_Aug_09_1245,None,001,,
0.5,1,0,1,0,68,1,137,1,2016_Aug_09_1245,None,001,,
0.0,1,0,1,0,69,0,138,0,2016_Aug_09_1245,None,001,,
0.5,1,0,1,0,69,1,139,1,2016_Aug_09_1245,None,001,,
0.0,1,0,1,0,70,0,140,0,2016_Aug_09_1245,None,001,,
0.5,1,0,1,0,70,1,141,1,2016_Aug_09_1245,None,001,,
0.0,1,0,1,0,71,0,142,0,2016_Aug_09_1245,None,001,,
0.5,1,0,1,0,71,1,143,1,2016_Aug_09_1245,None,001,,
0.0,1,0,1,0,72,0,144,0,2016_Aug_09_1245,None,001,,
0.5,1,0,1,0,72,1,145,1,2016_Aug_09_1245,None,001,,
0.0,1,0,1,0,73,0,146,0,2016_Aug_09_1245,None,001,,
0.5,1,0,1,0,73,1,147,1,2016_Aug_09_1245,None,001,,
0.0,1,0,1,0,74,0,148,0,2016_Aug_09_1245,None,001,,
0.5,1,0,1,0,74,1,149,1,2016_Aug_09_1245,None,001,,
0.0,1,0,1,0,75,0,150,0,2016_Aug_09_1245,None,001,,
0.5,1,0,1,0,75,1,151,1,2016_Aug_09_1245,None,001,,
0.0,1,0,1,0,76,0,152,0,2016_Aug_09_1245,None,001,,
0.5,1,0,1,0,76,1,153,1,2016_Aug_09_1245,None,001,,
0.0,1,0,1,0,77,0,154,0,2016_Aug_09_1245,None,001,,
0.5,1,0,1,0,77,1,155,1,2016_Aug_09_1245,None,001,,
0.0,1,0,1,0,78,0,156,0,2016_Aug_09_1245,None,001,,
0.5,1,0,1,0,78,1,157,1,2016_Aug_09_1245,None,001,,
0.0,1,0,1,0,79,0,158,0,2016_Aug_09_1245,None,001,,
0.5,1,0,1,0,79,1,159,1,2016_Aug_09_1245,None,001,,
0.0,1,0,1,0,80,0,160,0,2016_Aug_09_1245,None,001,,
0.5,1,0,1,0,80,1,161,1,2016_Aug_09_1245,None,001,,
0.0,1,0,1,0,81,0,162,0,2016_Aug_09_1245,None,001,,
0.5,1,0,1,0,81,1,163,1,2016_Aug_09_1245,None,001,,
0.0,1,0,1,0,82,0,164,0,2016_Aug_09_1245,None,001,,
0.5,1,0,1,0,82,1,165,1,2016_Aug_09_1245,None,001,,
0.0,1,0,1,0,83,0,166,0,2016_Aug_09_1245,None,001,,
0.5,1,0,1,0,83,1,167,1,2016_Aug_09_1245,None,001,,
0.0,1,0,1,0,84,0,168,0,2016_Aug_09_1245,None,001,,
0.5,1,0,1,0,84,1,169,1,2016_Aug_09_1245,None,001,,
0.0,1,0,1,0,85,0,170,0,2016_Aug_09_1245,None,001,,
0.5,1,0,1,0,85,1,171,1,2016_Aug_09_1245,None,001,,
0.0,1,0,1,0,86,0,172,0,2016_Aug_09_1245,None,001,,
0.5,1,0,1,0,86,1,173,1,2016_Aug_09_1245,None,001,,
0.0,1,0,1,0,87,0,174,0,2016_Aug_09_1245,None,001,,
0.5,1,0,1,0,87,1,175,1,2016_Aug_09_1245,None,001,,
0.0,1,0,1,0,88,0,176,0,2016_Aug_09_1245,None,001,,
0.5,1,0,1,0,88,1,177,1,2016_Aug_09_1245,None,001,,
0.0,1,0,1,0,89,0,178,0,2016_Aug_09_1245,None,001,,
0.5,1,0,1,0,89,1,179,1,2016_Aug_09_1245,None,001,,
0.0,1,0,1,0,90,0,180,0,2016_Aug_09_1245,None,001,,
0.5,1,0,1,0,90,1,181,1,2016_Aug_09_1245,None,001,,
0.0,1,0,1,0,91,0,182,0,2016_Aug_09_1245,None,001,,
0.5,1,0,1,0,91,1,183,1,2016_Aug_09_1245,None,001,,
0.0,1,0,1,0,92,0,184,0,2016_Aug_09_1245,None,001,,
0.5,1,0,1,0,92,1,185,1,2016_Aug_09_1245,None,001,,
0.0,1,0,1,0,93,0,186,0,2016_Aug_09_1245,None,001,,
0.5,1,0,1,0,93,1,187,1,2016_Aug_09_1245,None,001,,
0.0,1,0,1,0,94,0,188,0,2016_Aug_09_1245,None,001,,
0.5,1,0,1,0,94,1,189,1,2016_Aug_09_1245,None,001,,
0.0,1,0,1,0,95,0,190,0,2016_Aug_09_1245,None,001,,
0.5,1,0,1,0,95,1,191,1,2016_Aug_09_1245,None,001,,
0.0,1,0,1,0,96,0,192,0,2016_Aug_09_1245,None,001,,
0.5,1,0,1,0,96,1,193,1,2016_Aug_09_1245,None,001,,
0.0,1,0,1,0,97,0,194,0,2016_Aug_09_1245,None,001,,
0.5,1,0,1,0,97,1,195,1,2016_Aug_09_1245,None,001,,
0.0,1,0,1,0,98,0,196,0,2016_Aug_09_1245,None,001,,
0.5,1,0,1,0,98,1,197,1,2016_Aug_09_1245,None,001,,
0.0,1,0,1,0,99,0,198,0,2016_Aug_09_1245,None,001,,
0.5,1,0,1,0,99,1,199,1,2016_Aug_09_1245,None,001,,
0.0,1,0,1,0,100,0,200,0,2016_Aug_09_1245,None,001,,
0.5,1,0,1,0,100,1,201,1,2016_Aug_09_1245,None,001,,
0.0,1,0,1,0,101,0,202,0,2016_Aug_09_1245,None,001,,
0.5,1,0,1,0,101,1,203,1,2016_Aug_09_1245,None,001,,
0.0,1,0,1,0,102,0,204,0,2016_Aug_09_1245,None,001,,
0.5,1,0,1,0,102,1,205,1,2016_Aug_09_1245,None,001,,
0.0,1,0,1,0,103,0,206,0,2016_Aug_09_1245,None,001,,
0.5,1,0,1,0,103,1,207,1,2016_Aug_09_1245,None,001,,
0.0,1,0,1,0,104,0,208,0,2016_Aug_09_1245,None,001,,
0.5,1,0,1,0,104,1,209,1,2016_Aug_09_1245,None,001,,
0.0,1,0,1,0,105,0,210,0,2016_Aug_09_1245,None,001,,
0.5,1,0,1,0,105,1,211,1,2016_Aug_09_1245,None,001,,
0.0,1,0,1,0,106,0,212,0,2016_Aug_09_1245,None,001,,
0.5,1,0,1,0,106,1,213,1,2016_Aug_09_1245,None,001,,
0.0,1,0,1,0,107,0,214,0,2016_Aug_09_1245,None,001,,
0.5,1,0,1,0,107,1,215,1,2016_Aug_09_1245,None,001,,
0.0,1,0,1,0,108,0,216,0,2016_Aug_09_1245,None,001,,
0.5,1,0,1,0,108,1,217,1,2016_Aug_09_1245,None,001,,
0.0,1,0,1,0,109,0,218,0,2016_Aug_09_1245,None,001,,
0.5,1,0,1,0,109,1,219,1,2016_Aug_09_1245,None,001,,
0.0,1,0,1,0,110,0,220,0,2016_Aug_09_1245,None,001,,
0.5,1,0,1,0,110,1,221,1,2016_Aug_09_1245,None,001,,
0.0,1,0,1,0,111,0,222,0,2016_Aug_09_1245,None,001,,
0.5,1,0,1,0,111,1,223,1,2016_Aug_09_1245,None,001,,
0.0,1,0,1,0,112,0,224,0,2016_Aug_09_1245,None,001,,
0.5,1,0,1,0,112,1,225,1,2016_Aug_09_1245,None,001,,
0.0,1,0,1,0,113,0,226,0,2016_Aug_09_1245,None,001,,
0.5,1,0,1,0,113,1,227,1,2016_Aug_09_1245,None,001,,
0.0,1,0,1,0,114,0,228,0,2016_Aug_09_1245,None,001,,
0.5,1,0,1,0,114,1,229,1,2016_Aug_09_1245,None,001,,
0.0,1,0,1,0,115,0,230,0,2016_Aug_09_1245,None,001,,
0.5,1,0,1,0,115,1,231,1,2016_Aug_09_1245,None,001,,
0.0,1,0,1,0,116,0,232,0,2016_Aug_09_1245,None,001,,
0.5,1,0,1,0,116,1,233,1,2016_Aug_09_1245,None,001,,
0.0,1,0,1,0,117,0,234,0,2016_Aug_09_1245,None,001,,
0.5,1,0,1,0,117,1,235,1,2016_Aug_09_1245,None,001,,
0.0,1,0,1,0,118,0,236,0,2016_Aug_09_1245,None,001,,
0.5,1,0,1,0,118,1,237,1,2016_Aug_09_1245,None,001,,
0.0,1,0,1,0,119,0,238,0,2016_Aug_09_1245,None,001,,
0.5,1,0,1,0,119,1,239,1,2016_Aug_09_1245,None,001,,
0.0,1,0,1,0,120,0,240,0,2016_Aug_09_1245,None,001,,
0.5,1,0,1,0,120,1,241,1,2016_Aug_09_1245,None,001,,
0.0,1,0,1,0,121,0,242,0,2016_Aug_09_1245,None,001,,
0.5,1,0,1,0,121,1,243,1,2016_Aug_09_1245,None,001,,
0.0,1,0,1,0,122,0,244,0,2016_Aug_09_1245,None,001,,
0.5,1,0,1,0,122,1,245,1,2016_Aug_09_1245,None,001,,
0.0,1,0,1,0,123,0,246,0,2016_Aug_09_1245,None,001,,
0.5,1,0,1,0,123,1,247,1,2016_Aug_09_1245,None,001,,
0.0,1,0,1,0,124,0,248,0,2016_Aug_09_1245,None,001,,
0.5,1,0,1,0,124,1,249,1,2016_Aug_09_1245,None,001,,
0.0,1,0,1,0,125,0,250,0,2016_Aug_09_1245,None,001,,
0.5,1,0,1,0,125,1,251,1,2016_Aug_09_1245,None,001,,
0.0,1,0,1,0,126,0,252,0,2016_Aug_09_1245,None,001,,
0.5,1,0,1,0,126,1,253,1,2016_Aug_09_1245,None,001,,
0.0,1,0,1,0,127,0,254,0,2016_Aug_09_1245,None,001,,
0.5,1,0,1,0,127,1,255,1,2016_Aug_09_1245,None,001,,
0.0,1,0,1,0,128,0,256,0,2016_Aug_09_1245,None,001,,
0.5,1,0,1,0,128,1,257,1,2016_Aug_09_1245,None,001,,
0.0,1,0,1,0,129,0,258,0,2016_Aug_09_1245,None,001,,
0.5,1,0,1,0,129,1,259,1,2016_Aug_09_1245,None,001,,
0.0,1,0,1,0,130,0,260,0,2016_Aug_09_1245,None,001,,
0.5,1,0,1,0,130,1,261,1,2016_Aug_09_1245,None,001,,
0.0,1,0,1,0,131,0,262,0,2016_Aug_09_1245,None,001,,
0.5,1,0,1,0,131,1,263,1,2016_Aug_09_1245,None,001,,
0.0,1,0,1,0,132,0,264,0,2016_Aug_09_1245,None,001,,
0.5,1,0,1,0,132,1,265,1,2016_Aug_09_1245,None,001,,
0.0,1,0,1,0,133,0,266,0,2016_Aug_09_1245,None,001,,
0.5,1,0,1,0,133,1,267,1,2016_Aug_09_1245,None,001,,
0.0,1,0,1,0,134,0,268,0,2016_Aug_09_1245,None,001,,
0.5,1,0,1,0,134,1,269,1,2016_Aug_09_1245,None,001,,
0.0,1,0,1,0,135,0,270,0,2016_Aug_09_1245,None,001,,
0.5,1,0,1,0,135,1,271,1,2016_Aug_09_1245,None,001,,
0.0,1,0,1,0,136,0,272,0,2016_Aug_09_1245,None,001,,
0.5,1,0,1,0,136,1,273,1,2016_Aug_09_1245,None,001,,
0.0,1,0,1,0,137,0,274,0,2016_Aug_09_1245,None,001,,
0.5,1,0,1,0,137,1,275,1,2016_Aug_09_1245,None,001,,
0.0,1,0,1,0,138,0,276,0,2016_Aug_09_1245,None,001,,
0.5,1,0,1,0,138,1,277,1,2016_Aug_09_1245,None,001,,
0.0,1,0,1,0,139,0,278,0,2016_Aug_09_1245,None,001,,
0.5,1,0,1,0,139,1,279,1,2016_Aug_09_1245,None,001,,
0.0,1,0,1,0,140,0,280,0,2016_Aug_09_1245,None,001,,
0.5,1,0,1,0,140,1,281,1,2016_Aug_09_1245,None,001,,
0.0,1,0,1,0,141,0,282,0,2016_Aug_09_1245,None,001,,
0.5,1,0,1,0,141,1,283,1,2016_Aug_09_1245,None,001,,
0.0,1,0,1,0,142,0,284,0,2016_Aug_09_1245,None,001,,
0.5,1,0,1,0,142,1,285,1,2016_Aug_09_1245,None,001,,
0.0,1,0,1,0,143,0,286,0,2016_Aug_09_1245,None,001,,
0.5,1,0,1,0,143,1,287,1,2016_Aug_09_1245,None,001,,
0.0,1,0,1,0,144,0,288,0,2016_Aug_09_1245,None,001,,
0.5,1,0,1,0,144,1,289,1,2016_Aug_09_1245,None,001,,
0.0,1,0,1,0,145,0,290,0,2016_Aug_09_1245,None,001,,
0.5,1,0,1,0,145,1,291,1,2016_Aug_09_1245,None,001,,
0.0,1,0,1,0,146,0,292,0,2016_Aug_09_1245,None,001,,
0.5,1,0,1,0,146,1,293,1,2016_Aug_09_1245,None,001,,
0.0,1,0,1,0,147,0,294,0,2016_Aug_09_1245,None,001,,
0.5,1,0,1,0,147,1,295,1,2016_Aug_09_1245,None,001,,
0.0,1,0,1,0,148,0,296,0,2016_Aug_09_1245,None,001,,
0.5,1,0,1,0,148,1,297,1,2016_Aug_09_1245,None,001,,
0.0,1,0,1,0,149,0,298,0,2016_Aug_09_1245,None,001,,
0.5,1,0,1,0,149,1,299,1,2016_Aug_09_1245,None,001,,
0.0,1,0,1,0,150,0,300,0,2016_Aug_09_1245,None,001,,
0.5,1,0,1,0,150,1,301,1,2016_Aug_09_1245,None,001,,
0.0,1,0,1,0,151,0,302,0,2016_Aug_09_1245,None,001,,
0.5,1,0,1,0,151,1,303,1,2016_Aug_09_1245,None,001,,
0.0,1,0,1,0,152,0,304,0,2016_Aug_09_1245,None,001,,
0.5,1,0,1,0,152,1,305,1,2016_Aug_09_1245,None,001,,
0.0,1,0,1,0,153,0,306,0,2016_Aug_09_1245,None,001,,
0.5,1,0,1,0,153,1,307,1,2016_Aug_09_1245,None,001,,
0.0,1,0,1,0,154,0,308,0,2016_Aug_09_1245,None,001,,
0.5,1,0,1,0,154,1,309,1,2016_Aug_09_1245,None,001,,
0.0,1,0,1,0,155,0,310,0,2016_Aug_09_1245,None,001,,
0.5,1,0,1,0,155,1,311,1,2016_Aug_09_1245,None,001,,
0.0,1,0,1,0,156,0,312,0,2016_Aug_09_1245,None,001,,
0.5,1,0,1,0,156,1,313,1,2016_Aug_09_1245,None,001,,
0.0,1,0,1,0,157,0,314,0,2016_Aug_09_1245,None,001,,
0.5,1,0,1,0,157,1,315,1,2016_Aug_09_1245,None,001,,
0.0,1,0,1,0,158,0,316,0,2016_Aug_09_1245,None,001,,
0.5,1,0,1,0,158,1,317,1,2016_Aug_09_1245,None,001,,
0.0,1,0,1,0,159,0,318,0,2016_Aug_09_1245,None,001,,
0.5,1,0,1,0,159,1,319,1,2016_Aug_09_1245,None,001,,
0.0,1,0,1,0,160,0,320,0,2016_Aug_09_1245,None,001,,
0.5,1,0,1,0,160,1,321,1,2016_Aug_09_1245,None,001,,
0.0,1,0,1,0,161,0,322,0,2016_Aug_09_1245,None,001,,
0.5,1,0,1,0,161,1,323,1,2016_Aug_09_1245,None,001,,
0.0,1,0,1,0,162,0,324,0,2016_Aug_09_1245,None,001,,
0.5,1,0,1,0,162,1,325,1,2016_Aug_09_1245,None,001,,
0.0,1,0,1,0,163,0,326,0,2016_Aug_09_1245,None,001,,
0.5,1,0,1,0,163,1,327,1,2016_Aug_09_1245,None,001,,
0.0,1,0,1,0,164,0,328,0,2016_Aug_09_1245,None,001,,
0.5,1,0,1,0,164,1,329,1,2016_Aug_09_1245,None,001,,
0.0,1,0,1,0,165,0,330,0,2016_Aug_09_1245,None,001,,
0.5,1,0,1,0,165,1,331,1,2016_Aug_09_1245,None,001,,
0.0,1,0,1,0,166,0,332,0,2016_Aug_09_1245,None,001,,
0.5,1,0,1,0,166,1,333,1,2016_Aug_09_1245,None,001,,
0.0,1,0,1,0,167,0,334,0,2016_Aug_09_1245,None,001,,
0.5,1,0,1,0,167,1,335,1,2016_Aug_09_1245,None,001,,
0.0,1,0,1,0,168,0,336,0,2016_Aug_09_1245,None,001,,
0.5,1,0,1,0,168,1,337,1,2016_Aug_09_1245,None,001,,
0.0,1,0,1,0,169,0,338,0,2016_Aug_09_1245,None,001,,
0.5,1,0,1,0,169,1,339,1,2016_Aug_09_1245,None,001,,
0.0,1,0,1,0,170,0,340,0,2016_Aug_09_1245,None,001,,
0.5,1,0,1,0,170,1,341,1,2016_Aug_09_1245,None,001,,
0.0,1,0,1,0,171,0,342,0,2016_Aug_09_1245,None,001,,
0.5,1,0,1,0,171,1,343,1,2016_Aug_09_1245,None,001,,
0.0,1,0,1,0,172,0,344,0,2016_Aug_09_1245,None,001,,
0.5,1,0,1,0,172,1,345,1,2016_Aug_09_1245,None,001,,
0.0,1,0,1,0,173,0,346,0,2016_Aug_09_1245,None,001,,
0.5,1,0,1,0,173,1,347,1,2016_Aug_09_1245,None,001,,
0.0,1,0,1,0,174,0,348,0,2016_Aug_09_1245,None,001,,
0.5,1,0,1,0,174,1,349,1,2016_Aug_09_1245,None,001,,
0.0,1,0,1,0,175,0,350,0,2016_Aug_09_1245,None,001,,
0.5,1,0,1,0,175,1,351,1,2016_Aug_09_1245,None,001,,
0.0,1,0,1,0,176,0,352,0,2016_Aug_09_1245,None,001,,
0.5,1,0,1,0,176,1,353,1,2016_Aug_09_1245,None,001,,
0.0,1,0,1,0,177,0,354,0,2016_Aug_09_1245,None,001,,
0.5,1,0,1,0,177,1,355,1,2016_Aug_09_1245,None,001,,
0.0,1,0,1,0,178,0,356,0,2016_Aug_09_1245,None,001,,
0.5,1,0,1,0,178,1,357,1,2016_Aug_09_1245,None,001,,
0.0,1,0,1,0,179,0,358,0,2016_Aug_09_1245,None,001,,
0.5,1,0,1,0,179,1,359,1,2016_Aug_09_1245,None,001,,
0.0,1,0,1,0,180,0,360,0,2016_Aug_09_1245,None,001,,
0.5,1,0,1,0,180,1,361,1,2016_Aug_09_1245,None,001,,
0.0,1,0,1,0,181,0,362,0,2016_Aug_09_1245,None,001,,
0.5,1,0,1,0,181,1,363,1,2016_Aug_09_1245,None,001,,
0.0,1,0,1,0,182,0,364,0,2016_Aug_09_1245,None,001,,
0.5,1,0,1,0,182,1,365,1,2016_Aug_09_1245,None,001,,
0.0,1,0,1,0,183,0,366,0,2016_Aug_09_1245,None,001,,
0.5,1,0,1,0,183,1,367,1,2016_Aug_09_1245,None,001,,
0.0,1,0,1,0,184,0,368,0,2016_Aug_09_1245,None,001,,
0.5,1,0,1,0,184,1,369,1,2016_Aug_09_1245,None,001,,
0.0,1,0,1,0,185,0,370,0,2016_Aug_09_1245,None,001,,
0.5,1,0,1,0,185,1,371,1,2016_Aug_09_1245,None,001,,
0.0,1,0,1,0,186,0,372,0,2016_Aug_09_1245,None,001,,
0.5,1,0,1,0,186,1,373,1,2016_Aug_09_1245,None,001,,
0.0,1,0,1,0,187,0,374,0,2016_Aug_09_1245,None,001,,
0.5,1,0,1,0,187,1,375,1,2016_Aug_09_1245,None,001,,
0.0,1,0,1,0,188,0,376,0,2016_Aug_09_1245,None,001,,
0.5,1,0,1,0,188,1,377,1,2016_Aug_09_1245,None,001,,
0.0,1,0,1,0,189,0,378,0,2016_Aug_09_1245,None,001,,
0.5,1,0,1,0,189,1,379,1,2016_Aug_09_1245,None,001,,
0.0,1,0,1,0,190,0,380,0,2016_Aug_09_1245,None,001,,
0.5,1,0,1,0,190,1,381,1,2016_Aug_09_1245,None,001,,
0.0,1,0,1,0,191,0,382,0,2016_Aug_09_1245,None,001,,
0.5,1,0,1,0,191,1,383,1,2016_Aug_09_1245,None,001,,
0.0,1,0,1,0,192,0,384,0,2016_Aug_09_1245,None,001,,
0.5,1,0,1,0,192,1,385,1,2016_Aug_09_1245,None,001,,
0.0,1,0,1,0,193,0,386,0,2016_Aug_09_1245,None,001,,
0.5,1,0,1,0,193,1,387,1,2016_Aug_09_1245,None,001,,
0.0,1,0,1,0,194,0,388,0,2016_Aug_09_1245,None,001,,
0.5,1,0,1,0,194,1,389,1,2016_Aug_09_1245,None,001,,
0.0,1,0,1,0,195,0,390,0,2016_Aug_09_1245,None,001,,
0.5,1,0,1,0,195,1,391,1,2016_Aug_09_1245,None,001,,
0.0,1,0,1,0,196,0,392,0,2016_Aug_09_1245,None,001,,
0.5,1,0,1,0,196,1,393,1,2016_Aug_09_1245,None,001,,
0.0,1,0,1,0,197,0,394,0,2016_Aug_09_1245,None,001,,
0.5,1,0,1,0,197,1,395,1,2016_Aug_09_1245,None,001,,
0.0,1,0,1,0,198,0,396,0,2016_Aug_09_1245,None,001,,
0.5,1,0,1,0,198,1,397,1,2016_Aug_09_1245,None,001,,
0.0,1,0,1,0,199,0,398,0,2016_Aug_09_1245,None,001,,
0.5,1,0,1,0,199,1,399,1,2016_Aug_09_1245,None,001,,
0.0,1,0,1,0,200,0,400,0,2016_Aug_09_1245,None,001,,
0.5,1,0,1,0,200,1,401,1,2016_Aug_09_1245,None,001,,
0.0,1,0,1,0,201,0,402,0,2016_Aug_09_1245,None,001,,
0.5,1,0,1,0,201,1,403,1,2016_Aug_09_1245,None,001,,
0.0,1,0,1,0,202,0,404,0,2016_Aug_09_1245,None,001,,
0.5,1,0,1,0,202,1,405,1,2016_Aug_09_1245,None,001,,
0.0,1,0,1,0,203,0,406,0,2016_Aug_09_1245,None,001,,
0.5,1,0,1,0,203,1,407,1,2016_Aug_09_1245,None,001,,
0.0,1,0,1,0,204,0,408,0,2016_Aug_09_1245,None,001,,
0.5,1,0,1,0,204,1,409,1,2016_Aug_09_1245,None,001,,
0.0,1,0,1,0,205,0,410,0,2016_Aug_09_1245,None,001,,
0.5,1,0,1,0,205,1,411,1,2016_Aug_09_1245,None,001,,
0.0,1,0,1,0,206,0,412,0,2016_Aug_09_1245,None,001,,
0.5,1,0,1,0,206,1,413,1,2016_Aug_09_1245,None,001,,
0.0,1,0,1,0,207,0,414,0,2016_Aug_09_1245,None,001,,
0.5,1,0,1,0,207,1,415,1,2016_Aug_09_1245,None,001,,
0.0,1,0,1,0,208,0,416,0,2016_Aug_09_1245,None,001,,
0.5,1,0,1,0,208,1,417,1,2016_Aug_09_1245,None,001,,
0.0,1,0,1,0,209,0,418,0,2016_Aug_09_1245,None,001,,
0.5,1,0,1,0,209,1,419,1,2016_Aug_09_1245,None,001,,
0.0,1,0,1,0,210,0,420,0,2016_Aug_09_1245,None,001,,
0.5,1,0,1,0,210,1,421,1,2016_Aug_09_1245,None,001,,
0.0,1,0,1,0,211,0,422,0,2016_Aug_09_1245,None,001,,
0.5,1,0,1,0,211,1,423,1,2016_Aug_09_1245,None,001,,
0.0,1,0,1,0,212,0,424,0,2016_Aug_09_1245,None,001,,
0.5,1,0,1,0,212,1,425,1,2016_Aug_09_1245,None,001,,
0.0,1,0,1,0,213,0,426,0,2016_Aug_09_1245,None,001,,
0.5,1,0,1,0,213,1,427,1,2016_Aug_09_1245,None,001,,
0.0,1,0,1,0,214,0,428,0,2016_Aug_09_1245,None,001,,
0.5,1,0,1,0,214,1,429,1,2016_Aug_09_1245,None,001,,
0.0,1,0,1,0,215,0,430,0,2016_Aug_09_1245,None,001,,
0.5,1,0,1,0,215,1,431,1,2016_Aug_09_1245,None,001,,
0.0,1,0,1,0,216,0,432,0,2016_Aug_09_1245,None,001,,
0.5,1,0,1,0,216,1,433,1,2016_Aug_09_1245,None,001,,
0.0,1,0,1,0,217,0,434,0,2016_Aug_09_1245,None,001,,
0.5,1,0,1,0,217,1,435,1,2016_Aug_09_1245,None,001,,
0.0,1,0,1,0,218,0,436,0,2016_Aug_09_1245,None,001,,
0.5,1,0,1,0,218,1,437,1,2016_Aug_09_1245,None,001,,
0.0,1,0,1,0,219,0,438,0,2016_Aug_09_1245,None,001,,
0.5,1,0,1,0,219,1,439,1,2016_Aug_09_1245,None,001,,
0.0,1,0,1,0,220,0,440,0,2016_Aug_09_1245,None,001,,
0.5,1,0,1,0,220,1,441,1,2016_Aug_09_1245,None,001,,
0.0,1,0,1,0,221,0,442,0,2016_Aug_09_1245,None,001,,
0.5,1,0,1,0,221,1,443,1,2016_Aug_09_1245,None,001,,
0.0,1,0,1,0,222,0,444,0,2016_Aug_09_1245,None,001,,
0.5,1,0,1,0,222,1,445,1,2016_Aug_09_1245,None,001,,
0.0,1,0,1,0,223,0,446,0,2016_Aug_09_1245,None,001,,
0.5,1,0,1,0,223,1,447,1,2016_Aug_09_1245,None,001,,
0.0,1,0,1,0,224,0,448,0,2016_Aug_09_1245,None,001,,
0.5,1,0,1,0,224,1,449,1,2016_Aug_09_1245,None,001,,
0.0,1,0,1,0,225,0,450,0,2016_Aug_09_1245,None,001,,
0.5,1,0,1,0,225,1,451,1,2016_Aug_09_1245,None,001,,
0.0,1,0,1,0,226,0,452,0,2016_Aug_09_1245,None,001,,
0.5,1,0,1,0,226,1,453,1,2016_Aug_09_1245,None,001,,
0.0,1,0,1,0,227,0,454,0,2016_Aug_09_1245,None,001,,
0.5,1,0,1,0,227,1,455,1,2016_Aug_09_1245,None,001,,
0.0,1,0,1,0,228,0,456,0,2016_Aug_09_1245,None,001,,
0.5,1,0,1,0,228,1,457,1,2016_Aug_09_1245,None,001,,
0.0,1,0,1,0,229,0,458,0,2016_Aug_09_1245,None,001,,
0.5,1,0,1,0,229,1,459,1,2016_Aug_09_1245,None,001,,
0.0,1,0,1,0,230,0,460,0,2016_Aug_09_1245,None,001,,
0.5,1,0,1,0,230,1,461,1,2016_Aug_09_1245,None,001,,
0.0,1,0,1,0,231,0,462,0,2016_Aug_09_1245,None,001,,
0.5,1,0,1,0,231,1,463,1,2016_Aug_09_1245,None,001,,
0.0,1,0,1,0,232,0,464,0,2016_Aug_09_1245,None,001,,
0.5,1,0,1,0,232,1,465,1,2016_Aug_09_1245,None,001,,
0.0,1,0,1,0,233,0,466,0,2016_Aug_09_1245,None,001,,
0.5,1,0,1,0,233,1,467,1,2016_Aug_09_1245,None,001,,
0.0,1,0,1,0,234,0,468,0,2016_Aug_09_1245,None,001,,
0.5,1,0,1,0,234,1,469,1,2016_Aug_09_1245,None,001,,
0.0,1,0,1,0,235,0,470,0,2016_Aug_09_1245,None,001,,
0.5,1,0,1,0,235,1,471,1,2016_Aug_09_1245,None,001,,
0.0,1,0,1,0,236,0,472,0,2016_Aug_09_1245,None,001,,
0.5,1,0,1,0,236,1,473,1,2016_Aug_09_1245,None,001,,
0.0,1,0,1,0,237,0,474,0,2016_Aug_09_1245,None,001,,
0.5,1,0,1,0,237,1,475,1,2016_Aug_09_1245,None,001,,
0.0,1,0,1,0,238,0,476,0,2016_Aug_09_1245,None,001,,
0.5,1,0,1,0,238,1,477,1,2016_Aug_09_1245,None,001,,
0.0,1,0,1,0,239,0,478,0,2016_Aug_09_1245,None,001,,
0.5,1,0,1,0,239,1,479,1,2016_Aug_09_1245,None,001,,
0.0,1,0,1,0,240,0,480,0,2016_Aug_09_1245,None,001,,
0.5,1,0,1,0,240,1,481,1,2016_Aug_09_1245,None,001,,
0.0,1,0,1,0,241,0,482,0,2016_Aug_09_1245,None,001,,
0.5,1,0,1,0,241,1,483,1,2016_Aug_09_1245,None,001,,
0.0,1,0,1,0,242,0,484,0,2016_Aug_09_1245,None,001,,
0.5,1,0,1,0,242,1,485,1,2016_Aug_09_1245,None,001,,
0.0,1,0,1,0,243,0,486,0,2016_Aug_09_1245,None,001,,
0.5,1,0,1,0,243,1,487,1,2016_Aug_09_1245,None,001,,
0.0,1,0,1,0,244,0,488,0,2016_Aug_09_1245,None,001,,
0.5,1,0,1,0,244,1,489,1,2016_Aug_09_1245,None,001,,
0.0,1,0,1,0,245,0,490,0,2016_Aug_09_1245,None,001,,
0.5,1,0,1,0,245,1,491,1,2016_Aug_09_1245,None,001,,
0.0,1,0,1,0,246,0,492,0,2016_Aug_09_1245,None,001,,
0.5,1,0,1,0,246,1,493,1,2016_Aug_09_1245,None,001,,
0.0,1,0,1,0,247,0,494,0,2016_Aug_09_1245,None,001,,
0.5,1,0,1,0,247,1,495,1,2016_Aug_09_1245,None,001,,
0.0,1,0,1,0,248,0,496,0,2016_Aug_09_1245,None,001,,
0.5,1,0,1,0,248,1,497,1,2016_Aug_09_1245,None,001,,
0.0,1,0,1,0,249,0,498,0,2016_Aug_09_1245,None,001,,
0.5,1,0,1,0,249,1,499,1,2016_Aug_09_1245,None,001,,
0.0,1,0,1,0,250,0,500,0,2016_Aug_09_1245,None,001,,
0.5,1,0,1,0,250,1,501,1,2016_Aug_09_1245,None,001,,
0.0,1,0,1,0,251,0,502,0,2016_Aug_09_1245,None,001,,
0.5,1,0,1,0,251,1,503,1,2016_Aug_09_1245,None,001,,
0.0,1,0,1,0,252,0,504,0,2016_Aug_09_1245,None,001,,
0.5,1,0,1,0,252,1,505,1,2016_Aug_09_1245,None,001,,
0.0,1,0,1,0,253,0,506,0,2016_Aug_09_1245,None,001,,
0.5,1,0,1,0,253,1,507,1,2016_Aug_09_1245,None,001,,
0.0,1,0,1,0,254,0,508,0,2016_Aug_09_1245,None,001,,
0.5,1,0,1,0,254,1,509,1,2016_Aug_09_1245,None,001,,
0.0,1,0,1,0,255,0,510,0,2016_Aug_09_1245,None,001,,
0.5,1,0,1,0,255,1,511,1,2016_Aug_09_1245,None,001,,
0.0,1,0,1,0,256,0,512,0,2016_Aug_09_1245,None,001,,
0.5,1,0,1,0,256,1,513,1,2016_Aug_09_1245,None,001,,
0.0,1,0,1,0,257,0,514,0,2016_Aug_09_1245,None,001,,
0.5,1,0,1,0,257,1,515,1,2016_Aug_09_1245,None,001,,
0.0,1,0,1,0,258,0,516,0,2016_Aug_09_1245,None,001,,
0.5,1,0,1,0,258,1,517,1,2016_Aug_09_1245,None,001,,
0.0,1,0,1,0,259,0,518,0,2016_Aug_09_1245,None,001,,
0.5,1,0,1,0,259,1,519,1,2016_Aug_09_1245,None,001,,
0.0,1,0,1,0,260,0,520,0,2016_Aug_09_1245,None,001,,
0.5,1,0,1,0,260,1,521,1,2016_Aug_09_1245,None,001,,
0.0,1,0,1,0,261,0,522,0,2016_Aug_09_1245,None,001,,
0.5,1,0,1,0,261,1,523,1,2016_Aug_09_1245,None,001,,
0.0,1,0,1,0,262,0,524,0,2016_Aug_09_1245,None,001,,
0.5,1,0,1,0,262,1,525,1,2016_Aug_09_1245,None,001,,
0.0,1,0,1,0,263,0,526,0,2016_Aug_09_1245,None,001,,
0.5,1,0,1,0,263,1,527,1,2016_Aug_09_1245,None,001,,
0.0,1,0,1,0,264,0,528,0,2016_Aug_09_1245,None,001,,
0.5,1,0,1,0,264,1,529,1,2016_Aug_09_1245,None,001,,
0.0,1,0,1,0,265,0,530,0,2016_Aug_09_1245,None,001,,
0.5,1,0,1,0,265,1,531,1,2016_Aug_09_1245,None,001,,
0.0,1,0,1,0,266,0,532,0,2016_Aug_09_1245,None,001,,
0.5,1,0,1,0,266,1,533,1,2016_Aug_09_1245,None,001,,
0.0,1,0,1,0,267,0,534,0,2016_Aug_09_1245,None,001,,
0.5,1,0,1,0,267,1,535,1,2016_Aug_09_1245,None,001,,
0.0,1,0,1,0,268,0,536,0,2016_Aug_09_1245,None,001,,
0.5,1,0,1,0,268,1,537,1,2016_Aug_09_1245,None,001,,
0.0,1,0,1,0,269,0,538,0,2016_Aug_09_1245,None,001,,
0.5,1,0,1,0,269,1,539,1,2016_Aug_09_1245,None,001,,
0.0,1,0,1,0,270,0,540,0,2016_Aug_09_1245,None,001,,
0.5,1,0,1,0,270,1,541,1,2016_Aug_09_1245,None,001,,
0.0,1,0,1,0,271,0,542,0,2016_Aug_09_1245,None,001,,
0.5,1,0,1,0,271,1,543,1,2016_Aug_09_1245,None,001,,
0.0,1,0,1,0,272,0,544,0,2016_Aug_09_1245,None,001,,
0.5,1,0,1,0,272,1,545,1,2016_Aug_09_1245,None,001,,
0.0,1,0,1,0,273,0,546,0,2016_Aug_09_1245,None,001,,
0.5,1,0,1,0,273,1,547,1,2016_Aug_09_1245,None,001,,
0.0,1,0,1,0,274,0,548,0,2016_Aug_09_1245,None,001,,
0.5,1,0,1,0,274,1,549,1,2016_Aug_09_1245,None,001,,
0.0,1,0,1,0,275,0,550,0,2016_Aug_09_1245,None,001,,
0.5,1,0,1,0,275,1,551,1,2016_Aug_09_1245,None,001,,
0.0,1,0,1,0,276,0,552,0,2016_Aug_09_1245,None,001,,
0.5,1,0,1,0,276,1,553,1,2016_Aug_09_1245,None,001,,
0.0,1,0,1,0,277,0,554,0,2016_Aug_09_1245,None,001,,
0.5,1,0,1,0,277,1,555,1,2016_Aug_09_1245,None,001,,
0.0,1,0,1,0,278,0,556,0,2016_Aug_09_1245,None,001,,
0.5,1,0,1,0,278,1,557,1,2016_Aug_09_1245,None,001,,
0.0,1,0,1,0,279,0,558,0,2016_Aug_09_1245,None,001,,
0.5,1,0,1,0,279,1,559,1,2016_Aug_09_1245,None,001,,
0.0,1,0,1,0,280,0,560,0,2016_Aug_09_1245,None,001,,
0.5,1,0,1,0,280,1,561,1,2016_Aug_09_1245,None,001,,
0.0,1,0,1,0,281,0,562,0,2016_Aug_09_1245,None,001,,
0.5,1,0,1,0,281,1,563,1,2016_Aug_09_1245,None,001,,
0.0,1,0,1,0,282,0,564,0,2016_Aug_09_1245,None,001,,
0.5,1,0,1,0,282,1,565,1,2016_Aug_09_1245,None,001,,
0.0,1,0,1,0,283,0,566,0,2016_Aug_09_1245,None,001,,
0.5,1,0,1,0,283,1,567,1,2016_Aug_09_1245,None,001,,
0.0,1,0,1,0,284,0,568,0,2016_Aug_09_1245,None,001,,
0.5,1,0,1,0,284,1,569,1,2016_Aug_09_1245,None,001,,
0.0,1,0,1,0,285,0,570,0,2016_Aug_09_1245,None,001,,
0.5,1,0,1,0,285,1,571,1,2016_Aug_09_1245,None,001,,
0.0,1,0,1,0,286,0,572,0,2016_Aug_09_1245,None,001,,
0.5,1,0,1,0,286,1,573,1,2016_Aug_09_1245,None,001,,
0.0,1,0,1,0,287,0,574,0,2016_Aug_09_1245,None,001,,
0.5,1,0,1,0,287,1,575,1,2016_Aug_09_1245,None,001,,
,1,0,1,0,,,,,2016_Aug_09_1245,None,001,,
0.0,2,0,2,0,0,0,0,0,2016_Aug_09_1245,None,001,,
0.5,2,0,2,0,0,1,1,1,2016_Aug_09_1245,None,001,,
0.0,2,0,2,0,1,0,2,0,2016_Aug_09_1245,None,001,,
0.5,2,0,2,0,1,1,3,1,2016_Aug_09_1245,None,001,,
0.0,2,0,2,0,2,0,4,0,2016_Aug_09_1245,None,001,,
0.5,2,0,2,0,2,1,5,1,2016_Aug_09_1245,None,001,,
0.0,2,0,2,0,3,0,6,0,2016_Aug_09_1245,None,001,,
0.5,2,0,2,0,3,1,7,1,2016_Aug_09_1245,None,001,,
0.0,2,0,2,0,4,0,8,0,2016_Aug_09_1245,None,001,,
0.5,2,0,2,0,4,1,9,1,2016_Aug_09_1245,None,001,,
0.0,2,0,2,0,5,0,10,0,2016_Aug_09_1245,None,001,,
0.5,2,0,2,0,5,1,11,1,2016_Aug_09_1245,None,001,,
0.0,2,0,2,0,6,0,12,0,2016_Aug_09_1245,None,001,,
0.5,2,0,2,0,6,1,13,1,2016_Aug_09_1245,None,001,,
0.0,2,0,2,0,7,0,14,0,2016_Aug_09_1245,None,001,,
0.5,2,0,2,0,7,1,15,1,2016_Aug_09_1245,None,001,,
0.0,2,0,2,0,8,0,16,0,2016_Aug_09_1245,None,001,,
0.5,2,0,2,0,8,1,17,1,2016_Aug_09_1245,None,001,,
0.0,2,0,2,0,9,0,18,0,2016_Aug_09_1245,None,001,,
0.5,2,0,2,0,9,1,19,1,2016_Aug_09_1245,None,001,,
0.0,2,0,2,0,10,0,20,0,2016_Aug_09_1245,None,001,,
0.5,2,0,2,0,10,1,21,1,2016_Aug_09_1245,None,001,,
0.0,2,0,2,0,11,0,22,0,2016_Aug_09_1245,None,001,,
0.5,2,0,2,0,11,1,23,1,2016_Aug_09_1245,None,001,,
0.0,2,0,2,0,12,0,24,0,2016_Aug_09_1245,None,001,,
0.5,2,0,2,0,12,1,25,1,2016_Aug_09_1245,None,001,,
0.0,2,0,2,0,13,0,26,0,2016_Aug_09_1245,None,001,,
0.5,2,0,2,0,13,1,27,1,2016_Aug_09_1245,None,001,,
0.0,2,0,2,0,14,0,28,0,2016_Aug_09_1245,None,001,,
0.5,2,0,2,0,14,1,29,1,2016_Aug_09_1245,None,001,,
0.0,2,0,2,0,15,0,30,0,2016_Aug_09_1245,None,001,,
0.5,2,0,2,0,15,1,31,1,2016_Aug_09_1245,None,001,,
0.0,2,0,2,0,16,0,32,0,2016_Aug_09_1245,None,001,,
0.5,2,0,2,0,16,1,33,1,2016_Aug_09_1245,None,001,,
0.0,2,0,2,0,17,0,34,0,2016_Aug_09_1245,None,001,,
0.5,2,0,2,0,17,1,35,1,2016_Aug_09_1245,None,001,,
0.0,2,0,2,0,18,0,36,0,2016_Aug_09_1245,None,001,,
0.5,2,0,2,0,18,1,37,1,2016_Aug_09_1245,None,001,,
0.0,2,0,2,0,19,0,38,0,2016_Aug_09_1245,None,001,,
0.5,2,0,2,0,19,1,39,1,2016_Aug_09_1245,None,001,,
0.0,2,0,2,0,20,0,40,0,2016_Aug_09_1245,None,001,,
0.5,2,0,2,0,20,1,41,1,2016_Aug_09_1245,None,001,,
0.0,2,0,2,0,21,0,42,0,2016_Aug_09_1245,None,001,,
0.5,2,0,2,0,21,1,43,1,2016_Aug_09_1245,None,001,,
0.0,2,0,2,0,22,0,44,0,2016_Aug_09_1245,None,001,,
0.5,2,0,2,0,22,1,45,1,2016_Aug_09_1245,None,001,,
0.0,2,0,2,0,23,0,46,0,2016_Aug_09_1245,None,001,,
0.5,2,0,2,0,23,1,47,1,2016_Aug_09_1245,None,001,,
0.0,2,0,2,0,24,0,48,0,2016_Aug_09_1245,None,001,,
0.5,2,0,2,0,24,1,49,1,2016_Aug_09_1245,None,001,,
0.0,2,0,2,0,25,0,50,0,2016_Aug_09_1245,None,001,,
0.5,2,0,2,0,25,1,51,1,2016_Aug_09_1245,None,001,,
0.0,2,0,2,0,26,0,52,0,2016_Aug_09_1245,None,001,,
0.5,2,0,2,0,26,1,53,1,2016_Aug_09_1245,None,001,,
0.0,2,0,2,0,27,0,54,0,2016_Aug_09_1245,None,001,,
0.5,2,0,2,0,27,1,55,1,2016_Aug_09_1245,None,001,,
0.0,2,0,2,0,28,0,56,0,2016_Aug_09_1245,None,001,,
0.5,2,0,2,0,28,1,57,1,2016_Aug_09_1245,None,001,,
0.0,2,0,2,0,29,0,58,0,2016_Aug_09_1245,None,001,,
0.5,2,0,2,0,29,1,59,1,2016_Aug_09_1245,None,001,,
0.0,2,0,2,0,30,0,60,0,2016_Aug_09_1245,None,001,,
0.5,2,0,2,0,30,1,61,1,2016_Aug_09_1245,None,001,,
0.0,2,0,2,0,31,0,62,0,2016_Aug_09_1245,None,001,,
0.5,2,0,2,0,31,1,63,1,2016_Aug_09_1245,None,001,,
0.0,2,0,2,0,32,0,64,0,2016_Aug_09_1245,None,001,,
0.5,2,0,2,0,32,1,65,1,2016_Aug_09_1245,None,001,,
0.0,2,0,2,0,33,0,66,0,2016_Aug_09_1245,None,001,,
0.5,2,0,2,0,33,1,67,1,2016_Aug_09_1245,None,001,,
0.0,2,0,2,0,34,0,68,0,2016_Aug_09_1245,None,001,,
0.5,2,0,2,0,34,1,69,1,2016_Aug_09_1245,None,001,,
0.0,2,0,2,0,35,0,70,0,2016_Aug_09_1245,None,001,,
0.5,2,0,2,0,35,1,71,1,2016_Aug_09_1245,None,001,,
0.0,2,0,2,0,36,0,72,0,2016_Aug_09_1245,None,001,,
0.5,2,0,2,0,36,1,73,1,2016_Aug_09_1245,None,001,,
0.0,2,0,2,0,37,0,74,0,2016_Aug_09_1245,None,001,,
0.5,2,0,2,0,37,1,75,1,2016_Aug_09_1245,None,001,,
0.0,2,0,2,0,38,0,76,0,2016_Aug_09_1245,None,001,,
0.5,2,0,2,0,38,1,77,1,2016_Aug_09_1245,None,001,,
0.0,2,0,2,0,39,0,78,0,2016_Aug_09_1245,None,001,,
0.5,2,0,2,0,39,1,79,1,2016_Aug_09_1245,None,001,,
0.0,2,0,2,0,40,0,80,0,2016_Aug_09_1245,None,001,,
0.5,2,0,2,0,40,1,81,1,2016_Aug_09_1245,None,001,,
0.0,2,0,2,0,41,0,82,0,2016_Aug_09_1245,None,001,,
0.5,2,0,2,0,41,1,83,1,2016_Aug_09_1245,None,001,,
0.0,2,0,2,0,42,0,84,0,2016_Aug_09_1245,None,001,,
0.5,2,0,2,0,42,1,85,1,2016_Aug_09_1245,None,001,,
0.0,2,0,2,0,43,0,86,0,2016_Aug_09_1245,None,001,,
0.5,2,0,2,0,43,1,87,1,2016_Aug_09_1245,None,001,,
0.0,2,0,2,0,44,0,88,0,2016_Aug_09_1245,None,001,,
0.5,2,0,2,0,44,1,89,1,2016_Aug_09_1245,None,001,,
0.0,2,0,2,0,45,0,90,0,2016_Aug_09_1245,None,001,,
0.5,2,0,2,0,45,1,91,1,2016_Aug_09_1245,None,001,,
0.0,2,0,2,0,46,0,92,0,2016_Aug_09_1245,None,001,,
0.5,2,0,2,0,46,1,93,1,2016_Aug_09_1245,None,001,,
0.0,2,0,2,0,47,0,94,0,2016_Aug_09_1245,None,001,,
0.5,2,0,2,0,47,1,95,1,2016_Aug_09_1245,None,001,,
0.0,2,0,2,0,48,0,96,0,2016_Aug_09_1245,None,001,,
0.5,2,0,2,0,48,1,97,1,2016_Aug_09_1245,None,001,,
0.0,2,0,2,0,49,0,98,0,2016_Aug_09_1245,None,001,,
0.5,2,0,2,0,49,1,99,1,2016_Aug_09_1245,None,001,,
0.0,2,0,2,0,50,0,100,0,2016_Aug_09_1245,None,001,,
0.5,2,0,2,0,50,1,101,1,2016_Aug_09_1245,None,001,,
0.0,2,0,2,0,51,0,102,0,2016_Aug_09_1245,None,001,,
0.5,2,0,2,0,51,1,103,1,2016_Aug_09_1245,None,001,,
0.0,2,0,2,0,52,0,104,0,2016_Aug_09_1245,None,001,,
0.5,2,0,2,0,52,1,105,1,2016_Aug_09_1245,None,001,,
0.0,2,0,2,0,53,0,106,0,2016_Aug_09_1245,None,001,,
0.5,2,0,2,0,53,1,107,1,2016_Aug_09_1245,None,001,,
0.0,2,0,2,0,54,0,108,0,2016_Aug_09_1245,None,001,,
0.5,2,0,2,0,54,1,109,1,2016_Aug_09_1245,None,001,,
0.0,2,0,2,0,55,0,110,0,2016_Aug_09_1245,None,001,,
0.5,2,0,2,0,55,1,111,1,2016_Aug_09_1245,None,001,,
0.0,2,0,2,0,56,0,112,0,2016_Aug_09_1245,None,001,,
0.5,2,0,2,0,56,1,113,1,2016_Aug_09_1245,None,001,,
0.0,2,0,2,0,57,0,114,0,2016_Aug_09_1245,None,001,,
0.5,2,0,2,0,57,1,115,1,2016_Aug_09_1245,None,001,,
0.0,2,0,2,0,58,0,116,0,2016_Aug_09_1245,None,001,,
0.5,2,0,2,0,58,1,117,1,2016_Aug_09_1245,None,001,,
0.0,2,0,2,0,59,0,118,0,2016_Aug_09_1245,None,001,,
0.5,2,0,2,0,59,1,119,1,2016_Aug_09_1245,None,001,,
0.0,2,0,2,0,60,0,120,0,2016_Aug_09_1245,None,001,,
0.5,2,0,2,0,60,1,121,1,2016_Aug_09_1245,None,001,,
0.0,2,0,2,0,61,0,122,0,2016_Aug_09_1245,None,001,,
0.5,2,0,2,0,61,1,123,1,2016_Aug_09_1245,None,001,,
0.0,2,0,2,0,62,0,124,0,2016_Aug_09_1245,None,001,,
0.5,2,0,2,0,62,1,125,1,2016_Aug_09_1245,None,001,,
0.0,2,0,2,0,63,0,126,0,2016_Aug_09_1245,None,001,,
0.5,2,0,2,0,63,1,127,1,2016_Aug_09_1245,None,001,,
0.0,2,0,2,0,64,0,128,0,2016_Aug_09_1245,None,001,,
0.5,2,0,2,0,64,1,129,1,2016_Aug_09_1245,None,001,,
0.0,2,0,2,0,65,0,130,0,2016_Aug_09_1245,None,001,,
0.5,2,0,2,0,65,1,131,1,2016_Aug_09_1245,None,001,,
0.0,2,0,2,0,66,0,132,0,2016_Aug_09_1245,None,001,,
0.5,2,0,2,0,66,1,133,1,2016_Aug_09_1245,None,001,,
0.0,2,0,2,0,67,0,134,0,2016_Aug_09_1245,None,001,,
0.5,2,0,2,0,67,1,135,1,2016_Aug_09_1245,None,001,,
0.0,2,0,2,0,68,0,136,0,2016_Aug_09_1245,None,001,,
0.5,2,0,2,0,68,1,137,1,2016_Aug_09_1245,None,001,,
0.0,2,0,2,0,69,0,138,0,2016_Aug_09_1245,None,001,,
0.5,2,0,2,0,69,1,139,1,2016_Aug_09_1245,None,001,,
0.0,2,0,2,0,70,0,140,0,2016_Aug_09_1245,None,001,,
0.5,2,0,2,0,70,1,141,1,2016_Aug_09_1245,None,001,,
0.0,2,0,2,0,71,0,142,0,2016_Aug_09_1245,None,001,,
0.5,2,0,2,0,71,1,143,1,2016_Aug_09_1245,None,001,,
0.0,2,0,2,0,72,0,144,0,2016_Aug_09_1245,None,001,,
0.5,2,0,2,0,72,1,145,1,2016_Aug_09_1245,None,001,,
0.0,2,0,2,0,73,0,146,0,2016_Aug_09_1245,None,001,,
0.5,2,0,2,0,73,1,147,1,2016_Aug_09_1245,None,001,,
0.0,2,0,2,0,74,0,148,0,2016_Aug_09_1245,None,001,,
0.5,2,0,2,0,74,1,149,1,2016_Aug_09_1245,None,001,,
0.0,2,0,2,0,75,0,150,0,2016_Aug_09_1245,None,001,,
0.5,2,0,2,0,75,1,151,1,2016_Aug_09_1245,None,001,,
0.0,2,0,2,0,76,0,152,0,2016_Aug_09_1245,None,001,,
0.5,2,0,2,0,76,1,153,1,2016_Aug_09_1245,None,001,,
0.0,2,0,2,0,77,0,154,0,2016_Aug_09_1245,None,001,,
0.5,2,0,2,0,77,1,155,1,2016_Aug_09_1245,None,001,,
0.0,2,0,2,0,78,0,156,0,2016_Aug_09_1245,None,001,,
0.5,2,0,2,0,78,1,157,1,2016_Aug_09_1245,None,001,,
0.0,2,0,2,0,79,0,158,0,2016_Aug_09_1245,None,001,,
0.5,2,0,2,0,79,1,159,1,2016_Aug_09_1245,None,001,,
0.0,2,0,2,0,80,0,160,0,2016_Aug_09_1245,None,001,,
0.5,2,0,2,0,80,1,161,1,2016_Aug_09_1245,None,001,,
0.0,2,0,2,0,81,0,162,0,2016_Aug_09_1245,None,001,,
0.5,2,0,2,0,81,1,163,1,2016_Aug_09_1245,None,001,,
0.0,2,0,2,0,82,0,164,0,2016_Aug_09_1245,None,001,,
0.5,2,0,2,0,82,1,165,1,2016_Aug_09_1245,None,001,,
0.0,2,0,2,0,83,0,166,0,2016_Aug_09_1245,None,001,,
0.5,2,0,2,0,83,1,167,1,2016_Aug_09_1245,None,001,,
0.0,2,0,2,0,84,0,168,0,2016_Aug_09_1245,None,001,,
0.5,2,0,2,0,84,1,169,1,2016_Aug_09_1245,None,001,,
0.0,2,0,2,0,85,0,170,0,2016_Aug_09_1245,None,001,,
0.5,2,0,2,0,85,1,171,1,2016_Aug_09_1245,None,001,,
0.0,2,0,2,0,86,0,172,0,2016_Aug_09_1245,None,001,,
0.5,2,0,2,0,86,1,173,1,2016_Aug_09_1245,None,001,,
0.0,2,0,2,0,87,0,174,0,2016_Aug_09_1245,None,001,,
0.5,2,0,2,0,87,1,175,1,2016_Aug_09_1245,None,001,,
0.0,2,0,2,0,88,0,176,0,2016_Aug_09_1245,None,001,,
0.5,2,0,2,0,88,1,177,1,2016_Aug_09_1245,None,001,,
0.0,2,0,2,0,89,0,178,0,2016_Aug_09_1245,None,001,,
0.5,2,0,2,0,89,1,179,1,2016_Aug_09_1245,None,001,,
0.0,2,0,2,0,90,0,180,0,2016_Aug_09_1245,None,001,,
0.5,2,0,2,0,90,1,181,1,2016_Aug_09_1245,None,001,,
0.0,2,0,2,0,91,0,182,0,2016_Aug_09_1245,None,001,,
0.5,2,0,2,0,91,1,183,1,2016_Aug_09_1245,None,001,,
0.0,2,0,2,0,92,0,184,0,2016_Aug_09_1245,None,001,,
0.5,2,0,2,0,92,1,185,1,2016_Aug_09_1245,None,001,,
0.0,2,0,2,0,93,0,186,0,2016_Aug_09_1245,None,001,,
0.5,2,0,2,0,93,1,187,1,2016_Aug_09_1245,None,001,,
0.0,2,0,2,0,94,0,188,0,2016_Aug_09_1245,None,001,,
0.5,2,0,2,0,94,1,189,1,2016_Aug_09_1245,None,001,,
0.0,2,0,2,0,95,0,190,0,2016_Aug_09_1245,None,001,,
0.5,2,0,2,0,95,1,191,1,2016_Aug_09_1245,None,001,,
0.0,2,0,2,0,96,0,192,0,2016_Aug_09_1245,None,001,,
0.5,2,0,2,0,96,1,193,1,2016_Aug_09_1245,None,001,,
0.0,2,0,2,0,97,0,194,0,2016_Aug_09_1245,None,001,,
0.5,2,0,2,0,97,1,195,1,2016_Aug_09_1245,None,001,,
0.0,2,0,2,0,98,0,196,0,2016_Aug_09_1245,None,001,,
0.5,2,0,2,0,98,1,197,1,2016_Aug_09_1245,None,001,,
0.0,2,0,2,0,99,0,198,0,2016_Aug_09_1245,None,001,,
0.5,2,0,2,0,99,1,199,1,2016_Aug_09_1245,None,001,,
0.0,2,0,2,0,100,0,200,0,2016_Aug_09_1245,None,001,,
0.5,2,0,2,0,100,1,201,1,2016_Aug_09_1245,None,001,,
0.0,2,0,2,0,101,0,202,0,2016_Aug_09_1245,None,001,,
0.5,2,0,2,0,101,1,203,1,2016_Aug_09_1245,None,001,,
0.0,2,0,2,0,102,0,204,0,2016_Aug_09_1245,None,001,,
0.5,2,0,2,0,102,1,205,1,2016_Aug_09_1245,None,001,,
0.0,2,0,2,0,103,0,206,0,2016_Aug_09_1245,None,001,,
0.5,2,0,2,0,103,1,207,1,2016_Aug_09_1245,None,001,,
0.0,2,0,2,0,104,0,208,0,2016_Aug_09_1245,None,001,,
0.5,2,0,2,0,104,1,209,1,2016_Aug_09_1245,None,001,,
0.0,2,0,2,0,105,0,210,0,2016_Aug_09_1245,None,001,,
0.5,2,0,2,0,105,1,211,1,2016_Aug_09_1245,None,001,,
0.0,2,0,2,0,106,0,212,0,2016_Aug_09_1245,None,001,,
0.5,2,0,2,0,106,1,213,1,2016_Aug_09_1245,None,001,,
0.0,2,0,2,0,107,0,214,0,2016_Aug_09_1245,None,001,,
0.5,2,0,2,0,107,1,215,1,2016_Aug_09_1245,None,001,,
0.0,2,0,2,0,108,0,216,0,2016_Aug_09_1245,None,001,,
0.5,2,0,2,0,108,1,217,1,2016_Aug_09_1245,None,001,,
0.0,2,0,2,0,109,0,218,0,2016_Aug_09_1245,None,001,,
0.5,2,0,2,0,109,1,219,1,2016_Aug_09_1245,None,001,,
0.0,2,0,2,0,110,0,220,0,2016_Aug_09_1245,None,001,,
0.5,2,0,2,0,110,1,221,1,2016_Aug_09_1245,None,001,,
0.0,2,0,2,0,111,0,222,0,2016_Aug_09_1245,None,001,,
0.5,2,0,2,0,111,1,223,1,2016_Aug_09_1245,None,001,,
0.0,2,0,2,0,112,0,224,0,2016_Aug_09_1245,None,001,,
0.5,2,0,2,0,112,1,225,1,2016_Aug_09_1245,None,001,,
0.0,2,0,2,0,113,0,226,0,2016_Aug_09_1245,None,001,,
0.5,2,0,2,0,113,1,227,1,2016_Aug_09_1245,None,001,,
0.0,2,0,2,0,114,0,228,0,2016_Aug_09_1245,None,001,,
0.5,2,0,2,0,114,1,229,1,2016_Aug_09_1245,None,001,,
0.0,2,0,2,0,115,0,230,0,2016_Aug_09_1245,None,001,,
0.5,2,0,2,0,115,1,231,1,2016_Aug_09_1245,None,001,,
0.0,2,0,2,0,116,0,232,0,2016_Aug_09_1245,None,001,,
0.5,2,0,2,0,116,1,233,1,2016_Aug_09_1245,None,001,,
0.0,2,0,2,0,117,0,234,0,2016_Aug_09_1245,None,001,,
0.5,2,0,2,0,117,1,235,1,2016_Aug_09_1245,None,001,,
0.0,2,0,2,0,118,0,236,0,2016_Aug_09_1245,None,001,,
0.5,2,0,2,0,118,1,237,1,2016_Aug_09_1245,None,001,,
0.0,2,0,2,0,119,0,238,0,2016_Aug_09_1245,None,001,,
0.5,2,0,2,0,119,1,239,1,2016_Aug_09_1245,None,001,,
0.0,2,0,2,0,120,0,240,0,2016_Aug_09_1245,None,001,,
0.5,2,0,2,0,120,1,241,1,2016_Aug_09_1245,None,001,,
0.0,2,0,2,0,121,0,242,0,2016_Aug_09_1245,None,001,,
0.5,2,0,2,0,121,1,243,1,2016_Aug_09_1245,None,001,,
0.0,2,0,2,0,122,0,244,0,2016_Aug_09_1245,None,001,,
0.5,2,0,2,0,122,1,245,1,2016_Aug_09_1245,None,001,,
0.0,2,0,2,0,123,0,246,0,2016_Aug_09_1245,None,001,,
0.5,2,0,2,0,123,1,247,1,2016_Aug_09_1245,None,001,,
0.0,2,0,2,0,124,0,248,0,2016_Aug_09_1245,None,001,,
0.5,2,0,2,0,124,1,249,1,2016_Aug_09_1245,None,001,,
0.0,2,0,2,0,125,0,250,0,2016_Aug_09_1245,None,001,,
0.5,2,0,2,0,125,1,251,1,2016_Aug_09_1245,None,001,,
0.0,2,0,2,0,126,0,252,0,2016_Aug_09_1245,None,001,,
0.5,2,0,2,0,126,1,253,1,2016_Aug_09_1245,None,001,,
0.0,2,0,2,0,127,0,254,0,2016_Aug_09_1245,None,001,,
0.5,2,0,2,0,127,1,255,1,2016_Aug_09_1245,None,001,,
0.0,2,0,2,0,128,0,256,0,2016_Aug_09_1245,None,001,,
0.5,2,0,2,0,128,1,257,1,2016_Aug_09_1245,None,001,,
0.0,2,0,2,0,129,0,258,0,2016_Aug_09_1245,None,001,,
0.5,2,0,2,0,129,1,259,1,2016_Aug_09_1245,None,001,,
0.0,2,0,2,0,130,0,260,0,2016_Aug_09_1245,None,001,,
0.5,2,0,2,0,130,1,261,1,2016_Aug_09_1245,None,001,,
0.0,2,0,2,0,131,0,262,0,2016_Aug_09_1245,None,001,,
0.5,2,0,2,0,131,1,263,1,2016_Aug_09_1245,None,001,,
0.0,2,0,2,0,132,0,264,0,2016_Aug_09_1245,None,001,,
0.5,2,0,2,0,132,1,265,1,2016_Aug_09_1245,None,001,,
0.0,2,0,2,0,133,0,266,0,2016_Aug_09_1245,None,001,,
0.5,2,0,2,0,133,1,267,1,2016_Aug_09_1245,None,001,,
0.0,2,0,2,0,134,0,268,0,2016_Aug_09_1245,None,001,,
0.5,2,0,2,0,134,1,269,1,2016_Aug_09_1245,None,001,,
0.0,2,0,2,0,135,0,270,0,2016_Aug_09_1245,None,001,,
0.5,2,0,2,0,135,1,271,1,2016_Aug_09_1245,None,001,,
0.0,2,0,2,0,136,0,272,0,2016_Aug_09_1245,None,001,,
0.5,2,0,2,0,136,1,273,1,2016_Aug_09_1245,None,001,,
0.0,2,0,2,0,137,0,274,0,2016_Aug_09_1245,None,001,,
0.5,2,0,2,0,137,1,275,1,2016_Aug_09_1245,None,001,,
0.0,2,0,2,0,138,0,276,0,2016_Aug_09_1245,None,001,,
0.5,2,0,2,0,138,1,277,1,2016_Aug_09_1245,None,001,,
0.0,2,0,2,0,139,0,278,0,2016_Aug_09_1245,None,001,,
0.5,2,0,2,0,139,1,279,1,2016_Aug_09_1245,None,001,,
0.0,2,0,2,0,140,0,280,0,2016_Aug_09_1245,None,001,,
0.5,2,0,2,0,140,1,281,1,2016_Aug_09_1245,None,001,,
0.0,2,0,2,0,141,0,282,0,2016_Aug_09_1245,None,001,,
0.5,2,0,2,0,141,1,283,1,2016_Aug_09_1245,None,001,,
0.0,2,0,2,0,142,0,284,0,2016_Aug_09_1245,None,001,,
0.5,2,0,2,0,142,1,285,1,2016_Aug_09_1245,None,001,,
0.0,2,0,2,0,143,0,286,0,2016_Aug_09_1245,None,001,,
0.5,2,0,2,0,143,1,287,1,2016_Aug_09_1245,None,001,,
0.0,2,0,2,0,144,0,288,0,2016_Aug_09_1245,None,001,,
0.5,2,0,2,0,144,1,289,1,2016_Aug_09_1245,None,001,,
0.0,2,0,2,0,145,0,290,0,2016_Aug_09_1245,None,001,,
0.5,2,0,2,0,145,1,291,1,2016_Aug_09_1245,None,001,,
0.0,2,0,2,0,146,0,292,0,2016_Aug_09_1245,None,001,,
0.5,2,0,2,0,146,1,293,1,2016_Aug_09_1245,None,001,,
0.0,2,0,2,0,147,0,294,0,2016_Aug_09_1245,None,001,,
0.5,2,0,2,0,147,1,295,1,2016_Aug_09_1245,None,001,,
0.0,2,0,2,0,148,0,296,0,2016_Aug_09_1245,None,001,,
0.5,2,0,2,0,148,1,297,1,2016_Aug_09_1245,None,001,,
0.0,2,0,2,0,149,0,298,0,2016_Aug_09_1245,None,001,,
0.5,2,0,2,0,149,1,299,1,2016_Aug_09_1245,None,001,,
0.0,2,0,2,0,150,0,300,0,2016_Aug_09_1245,None,001,,
0.5,2,0,2,0,150,1,301,1,2016_Aug_09_1245,None,001,,
0.0,2,0,2,0,151,0,302,0,2016_Aug_09_1245,None,001,,
0.5,2,0,2,0,151,1,303,1,2016_Aug_09_1245,None,001,,
0.0,2,0,2,0,152,0,304,0,2016_Aug_09_1245,None,001,,
0.5,2,0,2,0,152,1,305,1,2016_Aug_09_1245,None,001,,
0.0,2,0,2,0,153,0,306,0,2016_Aug_09_1245,None,001,,
0.5,2,0,2,0,153,1,307,1,2016_Aug_09_1245,None,001,,
0.0,2,0,2,0,154,0,308,0,2016_Aug_09_1245,None,001,,
0.5,2,0,2,0,154,1,309,1,2016_Aug_09_1245,None,001,,
0.0,2,0,2,0,155,0,310,0,2016_Aug_09_1245,None,001,,
0.5,2,0,2,0,155,1,311,1,2016_Aug_09_1245,None,001,,
0.0,2,0,2,0,156,0,312,0,2016_Aug_09_1245,None,001,,
0.5,2,0,2,0,156,1,313,1,2016_Aug_09_1245,None,001,,
0.0,2,0,2,0,157,0,314,0,2016_Aug_09_1245,None,001,,
0.5,2,0,2,0,157,1,315,1,2016_Aug_09_1245,None,001,,
0.0,2,0,2,0,158,0,316,0,2016_Aug_09_1245,None,001,,
0.5,2,0,2,0,158,1,317,1,2016_Aug_09_1245,None,001,,
0.0,2,0,2,0,159,0,318,0,2016_Aug_09_1245,None,001,,
0.5,2,0,2,0,159,1,319,1,2016_Aug_09_1245,None,001,,
0.0,2,0,2,0,160,0,320,0,2016_Aug_09_1245,None,001,,
0.5,2,0,2,0,160,1,321,1,2016_Aug_09_1245,None,001,,
0.0,2,0,2,0,161,0,322,0,2016_Aug_09_1245,None,001,,
0.5,2,0,2,0,161,1,323,1,2016_Aug_09_1245,None,001,,
0.0,2,0,2,0,162,0,324,0,2016_Aug_09_1245,None,001,,
0.5,2,0,2,0,162,1,325,1,2016_Aug_09_1245,None,001,,
0.0,2,0,2,0,163,0,326,0,2016_Aug_09_1245,None,001,,
0.5,2,0,2,0,163,1,327,1,2016_Aug_09_1245,None,001,,
0.0,2,0,2,0,164,0,328,0,2016_Aug_09_1245,None,001,,
0.5,2,0,2,0,164,1,329,1,2016_Aug_09_1245,None,001,,
0.0,2,0,2,0,165,0,330,0,2016_Aug_09_1245,None,001,,
0.5,2,0,2,0,165,1,331,1,2016_Aug_09_1245,None,001,,
0.0,2,0,2,0,166,0,332,0,2016_Aug_09_1245,None,001,,
0.5,2,0,2,0,166,1,333,1,2016_Aug_09_1245,None,001,,
0.0,2,0,2,0,167,0,334,0,2016_Aug_09_1245,None,001,,
0.5,2,0,2,0,167,1,335,1,2016_Aug_09_1245,None,001,,
0.0,2,0,2,0,168,0,336,0,2016_Aug_09_1245,None,001,,
0.5,2,0,2,0,168,1,337,1,2016_Aug_09_1245,None,001,,
0.0,2,0,2,0,169,0,338,0,2016_Aug_09_1245,None,001,,
0.5,2,0,2,0,169,1,339,1,2016_Aug_09_1245,None,001,,
0.0,2,0,2,0,170,0,340,0,2016_Aug_09_1245,None,001,,
0.5,2,0,2,0,170,1,341,1,2016_Aug_09_1245,None,001,,
0.0,2,0,2,0,171,0,342,0,2016_Aug_09_1245,None,001,,
0.5,2,0,2,0,171,1,343,1,2016_Aug_09_1245,None,001,,
0.0,2,0,2,0,172,0,344,0,2016_Aug_09_1245,None,001,,
0.5,2,0,2,0,172,1,345,1,2016_Aug_09_1245,None,001,,
0.0,2,0,2,0,173,0,346,0,2016_Aug_09_1245,None,001,,
0.5,2,0,2,0,173,1,347,1,2016_Aug_09_1245,None,001,,
0.0,2,0,2,0,174,0,348,0,2016_Aug_09_1245,None,001,,
0.5,2,0,2,0,174,1,349,1,2016_Aug_09_1245,None,001,,
0.0,2,0,2,0,175,0,350,0,2016_Aug_09_1245,None,001,,
0.5,2,0,2,0,175,1,351,1,2016_Aug_09_1245,None,001,,
0.0,2,0,2,0,176,0,352,0,2016_Aug_09_1245,None,001,,
0.5,2,0,2,0,176,1,353,1,2016_Aug_09_1245,None,001,,
0.0,2,0,2,0,177,0,354,0,2016_Aug_09_1245,None,001,,
0.5,2,0,2,0,177,1,355,1,2016_Aug_09_1245,None,001,,
0.0,2,0,2,0,178,0,356,0,2016_Aug_09_1245,None,001,,
0.5,2,0,2,0,178,1,357,1,2016_Aug_09_1245,None,001,,
0.0,2,0,2,0,179,0,358,0,2016_Aug_09_1245,None,001,,
0.5,2,0,2,0,179,1,359,1,2016_Aug_09_1245,None,001,,
0.0,2,0,2,0,180,0,360,0,2016_Aug_09_1245,None,001,,
0.5,2,0,2,0,180,1,361,1,2016_Aug_09_1245,None,001,,
0.0,2,0,2,0,181,0,362,0,2016_Aug_09_1245,None,001,,
0.5,2,0,2,0,181,1,363,1,2016_Aug_09_1245,None,001,,
0.0,2,0,2,0,182,0,364,0,2016_Aug_09_1245,None,001,,
0.5,2,0,2,0,182,1,365,1,2016_Aug_09_1245,None,001,,
0.0,2,0,2,0,183,0,366,0,2016_Aug_09_1245,None,001,,
0.5,2,0,2,0,183,1,367,1,2016_Aug_09_1245,None,001,,
0.0,2,0,2,0,184,0,368,0,2016_Aug_09_1245,None,001,,
0.5,2,0,2,0,184,1,369,1,2016_Aug_09_1245,None,001,,
0.0,2,0,2,0,185,0,370,0,2016_Aug_09_1245,None,001,,
0.5,2,0,2,0,185,1,371,1,2016_Aug_09_1245,None,001,,
0.0,2,0,2,0,186,0,372,0,2016_Aug_09_1245,None,001,,
0.5,2,0,2,0,186,1,373,1,2016_Aug_09_1245,None,001,,
0.0,2,0,2,0,187,0,374,0,2016_Aug_09_1245,None,001,,
0.5,2,0,2,0,187,1,375,1,2016_Aug_09_1245,None,001,,
0.0,2,0,2,0,188,0,376,0,2016_Aug_09_1245,None,001,,
0.5,2,0,2,0,188,1,377,1,2016_Aug_09_1245,None,001,,
0.0,2,0,2,0,189,0,378,0,2016_Aug_09_1245,None,001,,
0.5,2,0,2,0,189,1,379,1,2016_Aug_09_1245,None,001,,
0.0,2,0,2,0,190,0,380,0,2016_Aug_09_1245,None,001,,
0.5,2,0,2,0,190,1,381,1,2016_Aug_09_1245,None,001,,
0.0,2,0,2,0,191,0,382,0,2016_Aug_09_1245,None,001,,
0.5,2,0,2,0,191,1,383,1,2016_Aug_09_1245,None,001,,
0.0,2,0,2,0,192,0,384,0,2016_Aug_09_1245,None,001,,
0.5,2,0,2,0,192,1,385,1,2016_Aug_09_1245,None,001,,
0.0,2,0,2,0,193,0,386,0,2016_Aug_09_1245,None,001,,
0.5,2,0,2,0,193,1,387,1,2016_Aug_09_1245,None,001,,
0.0,2,0,2,0,194,0,388,0,2016_Aug_09_1245,None,001,,
0.5,2,0,2,0,194,1,389,1,2016_Aug_09_1245,None,001,,
0.0,2,0,2,0,195,0,390,0,2016_Aug_09_1245,None,001,,
0.5,2,0,2,0,195,1,391,1,2016_Aug_09_1245,None,001,,
0.0,2,0,2,0,196,0,392,0,2016_Aug_09_1245,None,001,,
0.5,2,0,2,0,196,1,393,1,2016_Aug_09_1245,None,001,,
0.0,2,0,2,0,197,0,394,0,2016_Aug_09_1245,None,001,,
0.5,2,0,2,0,197,1,395,1,2016_Aug_09_1245,None,001,,
0.0,2,0,2,0,198,0,396,0,2016_Aug_09_1245,None,001,,
0.5,2,0,2,0,198,1,397,1,2016_Aug_09_1245,None,001,,
0.0,2,0,2,0,199,0,398,0,2016_Aug_09_1245,None,001,,
0.5,2,0,2,0,199,1,399,1,2016_Aug_09_1245,None,001,,
0.0,2,0,2,0,200,0,400,0,2016_Aug_09_1245,None,001,,
0.5,2,0,2,0,200,1,401,1,2016_Aug_09_1245,None,001,,
0.0,2,0,2,0,201,0,402,0,2016_Aug_09_1245,None,001,,
0.5,2,0,2,0,201,1,403,1,2016_Aug_09_1245,None,001,,
0.0,2,0,2,0,202,0,404,0,2016_Aug_09_1245,None,001,,
0.5,2,0,2,0,202,1,405,1,2016_Aug_09_1245,None,001,,
0.0,2,0,2,0,203,0,406,0,2016_Aug_09_1245,None,001,,
0.5,2,0,2,0,203,1,407,1,2016_Aug_09_1245,None,001,,
0.0,2,0,2,0,204,0,408,0,2016_Aug_09_1245,None,001,,
0.5,2,0,2,0,204,1,409,1,2016_Aug_09_1245,None,001,,
0.0,2,0,2,0,205,0,410,0,2016_Aug_09_1245,None,001,,
0.5,2,0,2,0,205,1,411,1,2016_Aug_09_1245,None,001,,
0.0,2,0,2,0,206,0,412,0,2016_Aug_09_1245,None,001,,
0.5,2,0,2,0,206,1,413,1,2016_Aug_09_1245,None,001,,
0.0,2,0,2,0,207,0,414,0,2016_Aug_09_1245,None,001,,
0.5,2,0,2,0,207,1,415,1,2016_Aug_09_1245,None,001,,
0.0,2,0,2,0,208,0,416,0,2016_Aug_09_1245,None,001,,
0.5,2,0,2,0,208,1,417,1,2016_Aug_09_1245,None,001,,
0.0,2,0,2,0,209,0,418,0,2016_Aug_09_1245,None,001,,
0.5,2,0,2,0,209,1,419,1,2016_Aug_09_1245,None,001,,
0.0,2,0,2,0,210,0,420,0,2016_Aug_09_1245,None,001,,
0.5,2,0,2,0,210,1,421,1,2016_Aug_09_1245,None,001,,
0.0,2,0,2,0,211,0,422,0,2016_Aug_09_1245,None,001,,
0.5,2,0,2,0,211,1,423,1,2016_Aug_09_1245,None,001,,
0.0,2,0,2,0,212,0,424,0,2016_Aug_09_1245,None,001,,
0.5,2,0,2,0,212,1,425,1,2016_Aug_09_1245,None,001,,
0.0,2,0,2,0,213,0,426,0,2016_Aug_09_1245,None,001,,
0.5,2,0,2,0,213,1,427,1,2016_Aug_09_1245,None,001,,
0.0,2,0,2,0,214,0,428,0,2016_Aug_09_1245,None,001,,
0.5,2,0,2,0,214,1,429,1,2016_Aug_09_1245,None,001,,
0.0,2,0,2,0,215,0,430,0,2016_Aug_09_1245,None,001,,
0.5,2,0,2,0,215,1,431,1,2016_Aug_09_1245,None,001,,
0.0,2,0,2,0,216,0,432,0,2016_Aug_09_1245,None,001,,
0.5,2,0,2,0,216,1,433,1,2016_Aug_09_1245,None,001,,
0.0,2,0,2,0,217,0,434,0,2016_Aug_09_1245,None,001,,
0.5,2,0,2,0,217,1,435,1,2016_Aug_09_1245,None,001,,
0.0,2,0,2,0,218,0,436,0,2016_Aug_09_1245,None,001,,
0.5,2,0,2,0,218,1,437,1,2016_Aug_09_1245,None,001,,
0.0,2,0,2,0,219,0,438,0,2016_Aug_09_1245,None,001,,
0.5,2,0,2,0,219,1,439,1,2016_Aug_09_1245,None,001,,
0.0,2,0,2,0,220,0,440,0,2016_Aug_09_1245,None,001,,
0.5,2,0,2,0,220,1,441,1,2016_Aug_09_1245,None,001,,
0.0,2,0,2,0,221,0,442,0,2016_Aug_09_1245,None,001,,
0.5,2,0,2,0,221,1,443,1,2016_Aug_09_1245,None,001,,
0.0,2,0,2,0,222,0,444,0,2016_Aug_09_1245,None,001,,
0.5,2,0,2,0,222,1,445,1,2016_Aug_09_1245,None,001,,
0.0,2,0,2,0,223,0,446,0,2016_Aug_09_1245,None,001,,
0.5,2,0,2,0,223,1,447,1,2016_Aug_09_1245,None,001,,
0.0,2,0,2,0,224,0,448,0,2016_Aug_09_1245,None,001,,
0.5,2,0,2,0,224,1,449,1,2016_Aug_09_1245,None,001,,
0.0,2,0,2,0,225,0,450,0,2016_Aug_09_1245,None,001,,
0.5,2,0,2,0,225,1,451,1,2016_Aug_09_1245,None,001,,
0.0,2,0,2,0,226,0,452,0,2016_Aug_09_1245,None,001,,
0.5,2,0,2,0,226,1,453,1,2016_Aug_09_1245,None,001,,
0.0,2,0,2,0,227,0,454,0,2016_Aug_09_1245,None,001,,
0.5,2,0,2,0,227,1,455,1,2016_Aug_09_1245,None,001,,
0.0,2,0,2,0,228,0,456,0,2016_Aug_09_1245,None,001,,
0.5,2,0,2,0,228,1,457,1,2016_Aug_09_1245,None,001,,
0.0,2,0,2,0,229,0,458,0,2016_Aug_09_1245,None,001,,
0.5,2,0,2,0,229,1,459,1,2016_Aug_09_1245,None,001,,
0.0,2,0,2,0,230,0,460,0,2016_Aug_09_1245,None,001,,
0.5,2,0,2,0,230,1,461,1,2016_Aug_09_1245,None,001,,
0.0,2,0,2,0,231,0,462,0,2016_Aug_09_1245,None,001,,
0.5,2,0,2,0,231,1,463,1,2016_Aug_09_1245,None,001,,
0.0,2,0,2,0,232,0,464,0,2016_Aug_09_1245,None,001,,
0.5,2,0,2,0,232,1,465,1,2016_Aug_09_1245,None,001,,
0.0,2,0,2,0,233,0,466,0,2016_Aug_09_1245,None,001,,
0.5,2,0,2,0,233,1,467,1,2016_Aug_09_1245,None,001,,
0.0,2,0,2,0,234,0,468,0,2016_Aug_09_1245,None,001,,
0.5,2,0,2,0,234,1,469,1,2016_Aug_09_1245,None,001,,
0.0,2,0,2,0,235,0,470,0,2016_Aug_09_1245,None,001,,
0.5,2,0,2,0,235,1,471,1,2016_Aug_09_1245,None,001,,
0.0,2,0,2,0,236,0,472,0,2016_Aug_09_1245,None,001,,
0.5,2,0,2,0,236,1,473,1,2016_Aug_09_1245,None,001,,
0.0,2,0,2,0,237,0,474,0,2016_Aug_09_1245,None,001,,
0.5,2,0,2,0,237,1,475,1,2016_Aug_09_1245,None,001,,
0.0,2,0,2,0,238,0,476,0,2016_Aug_09_1245,None,001,,
0.5,2,0,2,0,238,1,477,1,2016_Aug_09_1245,None,001,,
0.0,2,0,2,0,239,0,478,0,2016_Aug_09_1245,None,001,,
0.5,2,0,2,0,239,1,479,1,2016_Aug_09_1245,None,001,,
0.0,2,0,2,0,240,0,480,0,2016_Aug_09_1245,None,001,,
0.5,2,0,2,0,240,1,481,1,2016_Aug_09_1245,None,001,,
0.0,2,0,2,0,241,0,482,0,2016_Aug_09_1245,None,001,,
0.5,2,0,2,0,241,1,483,1,2016_Aug_09_1245,None,001,,
0.0,2,0,2,0,242,0,484,0,2016_Aug_09_1245,None,001,,
0.5,2,0,2,0,242,1,485,1,2016_Aug_09_1245,None,001,,
0.0,2,0,2,0,243,0,486,0,2016_Aug_09_1245,None,001,,
0.5,2,0,2,0,243,1,487,1,2016_Aug_09_1245,None,001,,
0.0,2,0,2,0,244,0,488,0,2016_Aug_09_1245,None,001,,
0.5,2,0,2,0,244,1,489,1,2016_Aug_09_1245,None,001,,
0.0,2,0,2,0,245,0,490,0,2016_Aug_09_1245,None,001,,
0.5,2,0,2,0,245,1,491,1,2016_Aug_09_1245,None,001,,
0.0,2,0,2,0,246,0,492,0,2016_Aug_09_1245,None,001,,
0.5,2,0,2,0,246,1,493,1,2016_Aug_09_1245,None,001,,
0.0,2,0,2,0,247,0,494,0,2016_Aug_09_1245,None,001,,
0.5,2,0,2,0,247,1,495,1,2016_Aug_09_1245,None,001,,
0.0,2,0,2,0,248,0,496,0,2016_Aug_09_1245,None,001,,
0.5,2,0,2,0,248,1,497,1,2016_Aug_09_1245,None,001,,
0.0,2,0,2,0,249,0,498,0,2016_Aug_09_1245,None,001,,
0.5,2,0,2,0,249,1,499,1,2016_Aug_09_1245,None,001,,
0.0,2,0,2,0,250,0,500,0,2016_Aug_09_1245,None,001,,
0.5,2,0,2,0,250,1,501,1,2016_Aug_09_1245,None,001,,
0.0,2,0,2,0,251,0,502,0,2016_Aug_09_1245,None,001,,
0.5,2,0,2,0,251,1,503,1,2016_Aug_09_1245,None,001,,
0.0,2,0,2,0,252,0,504,0,2016_Aug_09_1245,None,001,,
0.5,2,0,2,0,252,1,505,1,2016_Aug_09_1245,None,001,,
0.0,2,0,2,0,253,0,506,0,2016_Aug_09_1245,None,001,,
0.5,2,0,2,0,253,1,507,1,2016_Aug_09_1245,None,001,,
0.0,2,0,2,0,254,0,508,0,2016_Aug_09_1245,None,001,,
0.5,2,0,2,0,254,1,509,1,2016_Aug_09_1245,None,001,,
0.0,2,0,2,0,255,0,510,0,2016_Aug_09_1245,None,001,,
0.5,2,0,2,0,255,1,511,1,2016_Aug_09_1245,None,001,,
0.0,2,0,2,0,256,0,512,0,2016_Aug_09_1245,None,001,,
0.5,2,0,2,0,256,1,513,1,2016_Aug_09_1245,None,001,,
0.0,2,0,2,0,257,0,514,0,2016_Aug_09_1245,None,001,,
0.5,2,0,2,0,257,1,515,1,2016_Aug_09_1245,None,001,,
0.0,2,0,2,0,258,0,516,0,2016_Aug_09_1245,None,001,,
0.5,2,0,2,0,258,1,517,1,2016_Aug_09_1245,None,001,,
0.0,2,0,2,0,259,0,518,0,2016_Aug_09_1245,None,001,,
0.5,2,0,2,0,259,1,519,1,2016_Aug_09_1245,None,001,,
0.0,2,0,2,0,260,0,520,0,2016_Aug_09_1245,None,001,,
0.5,2,0,2,0,260,1,521,1,2016_Aug_09_1245,None,001,,
0.0,2,0,2,0,261,0,522,0,2016_Aug_09_1245,None,001,,
0.5,2,0,2,0,261,1,523,1,2016_Aug_09_1245,None,001,,
0.0,2,0,2,0,262,0,524,0,2016_Aug_09_1245,None,001,,
0.5,2,0,2,0,262,1,525,1,2016_Aug_09_1245,None,001,,
0.0,2,0,2,0,263,0,526,0,2016_Aug_09_1245,None,001,,
0.5,2,0,2,0,263,1,527,1,2016_Aug_09_1245,None,001,,
0.0,2,0,2,0,264,0,528,0,2016_Aug_09_1245,None,001,,
0.5,2,0,2,0,264,1,529,1,2016_Aug_09_1245,None,001,,
0.0,2,0,2,0,265,0,530,0,2016_Aug_09_1245,None,001,,
0.5,2,0,2,0,265,1,531,1,2016_Aug_09_1245,None,001,,
0.0,2,0,2,0,266,0,532,0,2016_Aug_09_1245,None,001,,
0.5,2,0,2,0,266,1,533,1,2016_Aug_09_1245,None,001,,
0.0,2,0,2,0,267,0,534,0,2016_Aug_09_1245,None,001,,
0.5,2,0,2,0,267,1,535,1,2016_Aug_09_1245,None,001,,
0.0,2,0,2,0,268,0,536,0,2016_Aug_09_1245,None,001,,
0.5,2,0,2,0,268,1,537,1,2016_Aug_09_1245,None,001,,
0.0,2,0,2,0,269,0,538,0,2016_Aug_09_1245,None,001,,
0.5,2,0,2,0,269,1,539,1,2016_Aug_09_1245,None,001,,
0.0,2,0,2,0,270,0,540,0,2016_Aug_09_1245,None,001,,
0.5,2,0,2,0,270,1,541,1,2016_Aug_09_1245,None,001,,
0.0,2,0,2,0,271,0,542,0,2016_Aug_09_1245,None,001,,
0.5,2,0,2,0,271,1,543,1,2016_Aug_09_1245,None,001,,
0.0,2,0,2,0,272,0,544,0,2016_Aug_09_1245,None,001,,
0.5,2,0,2,0,272,1,545,1,2016_Aug_09_1245,None,001,,
0.0,2,0,2,0,273,0,546,0,2016_Aug_09_1245,None,001,,
0.5,2,0,2,0,273,1,547,1,2016_Aug_09_1245,None,001,,
0.0,2,0,2,0,274,0,548,0,2016_Aug_09_1245,None,001,,
0.5,2,0,2,0,274,1,549,1,2016_Aug_09_1245,None,001,,
0.0,2,0,2,0,275,0,550,0,2016_Aug_09_1245,None,001,,
0.5,2,0,2,0,275,1,551,1,2016_Aug_09_1245,None,001,,
0.0,2,0,2,0,276,0,552,0,2016_Aug_09_1245,None,001,,
0.5,2,0,2,0,276,1,553,1,2016_Aug_09_1245,None,001,,
0.0,2,0,2,0,277,0,554,0,2016_Aug_09_1245,None,001,,
0.5,2,0,2,0,277,1,555,1,2016_Aug_09_1245,None,001,,
0.0,2,0,2,0,278,0,556,0,2016_Aug_09_1245,None,001,,
0.5,2,0,2,0,278,1,557,1,2016_Aug_09_1245,None,001,,
0.0,2,0,2,0,279,0,558,0,2016_Aug_09_1245,None,001,,
0.5,2,0,2,0,279,1,559,1,2016_Aug_09_1245,None,001,,
0.0,2,0,2,0,280,0,560,0,2016_Aug_09_1245,None,001,,
0.5,2,0,2,0,280,1,561,1,2016_Aug_09_1245,None,001,,
0.0,2,0,2,0,281,0,562,0,2016_Aug_09_1245,None,001,,
0.5,2,0,2,0,281,1,563,1,2016_Aug_09_1245,None,001,,
0.0,2,0,2,0,282,0,564,0,2016_Aug_09_1245,None,001,,
0.5,2,0,2,0,282,1,565,1,2016_Aug_09_1245,None,001,,
0.0,2,0,2,0,283,0,566,0,2016_Aug_09_1245,None,001,,
0.5,2,0,2,0,283,1,567,1,2016_Aug_09_1245,None,001,,
0.0,2,0,2,0,284,0,568,0,2016_Aug_09_1245,None,001,,
0.5,2,0,2,0,284,1,569,1,2016_Aug_09_1245,None,001,,
0.0,2,0,2,0,285,0,570,0,2016_Aug_09_1245,None,001,,
0.5,2,0,2,0,285,1,571,1,2016_Aug_09_1245,None,001,,
0.0,2,0,2,0,286,0,572,0,2016_Aug_09_1245,None,001,,
0.5,2,0,2,0,286,1,573,1,2016_Aug_09_1245,None,001,,
0.0,2,0,2,0,287,0,574,0,2016_Aug_09_1245,None,001,,
0.5,2,0,2,0,287,1,575,1,2016_Aug_09_1245,None,001,,
,2,0,2,0,,,,,2016_Aug_09_1245,None,001,,
0.0,3,0,3,0,0,0,0,0,2016_Aug_09_1245,None,001,,
0.5,3,0,3,0,0,1,1,1,2016_Aug_09_1245,None,001,,
0.0,3,0,3,0,1,0,2,0,2016_Aug_09_1245,None,001,,
0.5,3,0,3,0,1,1,3,1,2016_Aug_09_1245,None,001,,
0.0,3,0,3,0,2,0,4,0,2016_Aug_09_1245,None,001,,
0.5,3,0,3,0,2,1,5,1,2016_Aug_09_1245,None,001,,
0.0,3,0,3,0,3,0,6,0,2016_Aug_09_1245,None,001,,
0.5,3,0,3,0,3,1,7,1,2016_Aug_09_1245,None,001,,
0.0,3,0,3,0,4,0,8,0,2016_Aug_09_1245,None,001,,
0.5,3,0,3,0,4,1,9,1,2016_Aug_09_1245,None,001,,
0.0,3,0,3,0,5,0,10,0,2016_Aug_09_1245,None,001,,
0.5,3,0,3,0,5,1,11,1,2016_Aug_09_1245,None,001,,
0.0,3,0,3,0,6,0,12,0,2016_Aug_09_1245,None,001,,
0.5,3,0,3,0,6,1,13,1,2016_Aug_09_1245,None,001,,
0.0,3,0,3,0,7,0,14,0,2016_Aug_09_1245,None,001,,
0.5,3,0,3,0,7,1,15,1,2016_Aug_09_1245,None,001,,
0.0,3,0,3,0,8,0,16,0,2016_Aug_09_1245,None,001,,
0.5,3,0,3,0,8,1,17,1,2016_Aug_09_1245,None,001,,
0.0,3,0,3,0,9,0,18,0,2016_Aug_09_1245,None,001,,
0.5,3,0,3,0,9,1,19,1,2016_Aug_09_1245,None,001,,
0.0,3,0,3,0,10,0,20,0,2016_Aug_09_1245,None,001,,
0.5,3,0,3,0,10,1,21,1,2016_Aug_09_1245,None,001,,
0.0,3,0,3,0,11,0,22,0,2016_Aug_09_1245,None,001,,
0.5,3,0,3,0,11,1,23,1,2016_Aug_09_1245,None,001,,
0.0,3,0,3,0,12,0,24,0,2016_Aug_09_1245,None,001,,
0.5,3,0,3,0,12,1,25,1,2016_Aug_09_1245,None,001,,
0.0,3,0,3,0,13,0,26,0,2016_Aug_09_1245,None,001,,
0.5,3,0,3,0,13,1,27,1,2016_Aug_09_1245,None,001,,
0.0,3,0,3,0,14,0,28,0,2016_Aug_09_1245,None,001,,
0.5,3,0,3,0,14,1,29,1,2016_Aug_09_1245,None,001,,
0.0,3,0,3,0,15,0,30,0,2016_Aug_09_1245,None,001,,
0.5,3,0,3,0,15,1,31,1,2016_Aug_09_1245,None,001,,
0.0,3,0,3,0,16,0,32,0,2016_Aug_09_1245,None,001,,
0.5,3,0,3,0,16,1,33,1,2016_Aug_09_1245,None,001,,
0.0,3,0,3,0,17,0,34,0,2016_Aug_09_1245,None,001,,
0.5,3,0,3,0,17,1,35,1,2016_Aug_09_1245,None,001,,
0.0,3,0,3,0,18,0,36,0,2016_Aug_09_1245,None,001,,
0.5,3,0,3,0,18,1,37,1,2016_Aug_09_1245,None,001,,
0.0,3,0,3,0,19,0,38,0,2016_Aug_09_1245,None,001,,
0.5,3,0,3,0,19,1,39,1,2016_Aug_09_1245,None,001,,
0.0,3,0,3,0,20,0,40,0,2016_Aug_09_1245,None,001,,
0.5,3,0,3,0,20,1,41,1,2016_Aug_09_1245,None,001,,
0.0,3,0,3,0,21,0,42,0,2016_Aug_09_1245,None,001,,
0.5,3,0,3,0,21,1,43,1,2016_Aug_09_1245,None,001,,
0.0,3,0,3,0,22,0,44,0,2016_Aug_09_1245,None,001,,
0.5,3,0,3,0,22,1,45,1,2016_Aug_09_1245,None,001,,
0.0,3,0,3,0,23,0,46,0,2016_Aug_09_1245,None,001,,
0.5,3,0,3,0,23,1,47,1,2016_Aug_09_1245,None,001,,
0.0,3,0,3,0,24,0,48,0,2016_Aug_09_1245,None,001,,
0.5,3,0,3,0,24,1,49,1,2016_Aug_09_1245,None,001,,
0.0,3,0,3,0,25,0,50,0,2016_Aug_09_1245,None,001,,
0.5,3,0,3,0,25,1,51,1,2016_Aug_09_1245,None,001,,
0.0,3,0,3,0,26,0,52,0,2016_Aug_09_1245,None,001,,
0.5,3,0,3,0,26,1,53,1,2016_Aug_09_1245,None,001,,
0.0,3,0,3,0,27,0,54,0,2016_Aug_09_1245,None,001,,
0.5,3,0,3,0,27,1,55,1,2016_Aug_09_1245,None,001,,
0.0,3,0,3,0,28,0,56,0,2016_Aug_09_1245,None,001,,
0.5,3,0,3,0,28,1,57,1,2016_Aug_09_1245,None,001,,
0.0,3,0,3,0,29,0,58,0,2016_Aug_09_1245,None,001,,
0.5,3,0,3,0,29,1,59,1,2016_Aug_09_1245,None,001,,
0.0,3,0,3,0,30,0,60,0,2016_Aug_09_1245,None,001,,
0.5,3,0,3,0,30,1,61,1,2016_Aug_09_1245,None,001,,
0.0,3,0,3,0,31,0,62,0,2016_Aug_09_1245,None,001,,
0.5,3,0,3,0,31,1,63,1,2016_Aug_09_1245,None,001,,
0.0,3,0,3,0,32,0,64,0,2016_Aug_09_1245,None,001,,
0.5,3,0,3,0,32,1,65,1,2016_Aug_09_1245,None,001,,
0.0,3,0,3,0,33,0,66,0,2016_Aug_09_1245,None,001,,
0.5,3,0,3,0,33,1,67,1,2016_Aug_09_1245,None,001,,
0.0,3,0,3,0,34,0,68,0,2016_Aug_09_1245,None,001,,
0.5,3,0,3,0,34,1,69,1,2016_Aug_09_1245,None,001,,
0.0,3,0,3,0,35,0,70,0,2016_Aug_09_1245,None,001,,
0.5,3,0,3,0,35,1,71,1,2016_Aug_09_1245,None,001,,
0.0,3,0,3,0,36,0,72,0,2016_Aug_09_1245,None,001,,
0.5,3,0,3,0,36,1,73,1,2016_Aug_09_1245,None,001,,
0.0,3,0,3,0,37,0,74,0,2016_Aug_09_1245,None,001,,
0.5,3,0,3,0,37,1,75,1,2016_Aug_09_1245,None,001,,
0.0,3,0,3,0,38,0,76,0,2016_Aug_09_1245,None,001,,
0.5,3,0,3,0,38,1,77,1,2016_Aug_09_1245,None,001,,
0.0,3,0,3,0,39,0,78,0,2016_Aug_09_1245,None,001,,
0.5,3,0,3,0,39,1,79,1,2016_Aug_09_1245,None,001,,
0.0,3,0,3,0,40,0,80,0,2016_Aug_09_1245,None,001,,
0.5,3,0,3,0,40,1,81,1,2016_Aug_09_1245,None,001,,
0.0,3,0,3,0,41,0,82,0,2016_Aug_09_1245,None,001,,
0.5,3,0,3,0,41,1,83,1,2016_Aug_09_1245,None,001,,
0.0,3,0,3,0,42,0,84,0,2016_Aug_09_1245,None,001,,
0.5,3,0,3,0,42,1,85,1,2016_Aug_09_1245,None,001,,
0.0,3,0,3,0,43,0,86,0,2016_Aug_09_1245,None,001,,
0.5,3,0,3,0,43,1,87,1,2016_Aug_09_1245,None,001,,
0.0,3,0,3,0,44,0,88,0,2016_Aug_09_1245,None,001,,
0.5,3,0,3,0,44,1,89,1,2016_Aug_09_1245,None,001,,
0.0,3,0,3,0,45,0,90,0,2016_Aug_09_1245,None,001,,
0.5,3,0,3,0,45,1,91,1,2016_Aug_09_1245,None,001,,
0.0,3,0,3,0,46,0,92,0,2016_Aug_09_1245,None,001,,
0.5,3,0,3,0,46,1,93,1,2016_Aug_09_1245,None,001,,
0.0,3,0,3,0,47,0,94,0,2016_Aug_09_1245,None,001,,
0.5,3,0,3,0,47,1,95,1,2016_Aug_09_1245,None,001,,
0.0,3,0,3,0,48,0,96,0,2016_Aug_09_1245,None,001,,
0.5,3,0,3,0,48,1,97,1,2016_Aug_09_1245,None,001,,
0.0,3,0,3,0,49,0,98,0,2016_Aug_09_1245,None,001,,
0.5,3,0,3,0,49,1,99,1,2016_Aug_09_1245,None,001,,
0.0,3,0,3,0,50,0,100,0,2016_Aug_09_1245,None,001,,
0.5,3,0,3,0,50,1,101,1,2016_Aug_09_1245,None,001,,
0.0,3,0,3,0,51,0,102,0,2016_Aug_09_1245,None,001,,
0.5,3,0,3,0,51,1,103,1,2016_Aug_09_1245,None,001,,
0.0,3,0,3,0,52,0,104,0,2016_Aug_09_1245,None,001,,
0.5,3,0,3,0,52,1,105,1,2016_Aug_09_1245,None,001,,
0.0,3,0,3,0,53,0,106,0,2016_Aug_09_1245,None,001,,
0.5,3,0,3,0,53,1,107,1,2016_Aug_09_1245,None,001,,
0.0,3,0,3,0,54,0,108,0,2016_Aug_09_1245,None,001,,
0.5,3,0,3,0,54,1,109,1,2016_Aug_09_1245,None,001,,
0.0,3,0,3,0,55,0,110,0,2016_Aug_09_1245,None,001,,
0.5,3,0,3,0,55,1,111,1,2016_Aug_09_1245,None,001,,
0.0,3,0,3,0,56,0,112,0,2016_Aug_09_1245,None,001,,
0.5,3,0,3,0,56,1,113,1,2016_Aug_09_1245,None,001,,
0.0,3,0,3,0,57,0,114,0,2016_Aug_09_1245,None,001,,
0.5,3,0,3,0,57,1,115,1,2016_Aug_09_1245,None,001,,
0.0,3,0,3,0,58,0,116,0,2016_Aug_09_1245,None,001,,
0.5,3,0,3,0,58,1,117,1,2016_Aug_09_1245,None,001,,
0.0,3,0,3,0,59,0,118,0,2016_Aug_09_1245,None,001,,
0.5,3,0,3,0,59,1,119,1,2016_Aug_09_1245,None,001,,
0.0,3,0,3,0,60,0,120,0,2016_Aug_09_1245,None,001,,
0.5,3,0,3,0,60,1,121,1,2016_Aug_09_1245,None,001,,
0.0,3,0,3,0,61,0,122,0,2016_Aug_09_1245,None,001,,
0.5,3,0,3,0,61,1,123,1,2016_Aug_09_1245,None,001,,
0.0,3,0,3,0,62,0,124,0,2016_Aug_09_1245,None,001,,
0.5,3,0,3,0,62,1,125,1,2016_Aug_09_1245,None,001,,
0.0,3,0,3,0,63,0,126,0,2016_Aug_09_1245,None,001,,
0.5,3,0,3,0,63,1,127,1,2016_Aug_09_1245,None,001,,
0.0,3,0,3,0,64,0,128,0,2016_Aug_09_1245,None,001,,
0.5,3,0,3,0,64,1,129,1,2016_Aug_09_1245,None,001,,
0.0,3,0,3,0,65,0,130,0,2016_Aug_09_1245,None,001,,
0.5,3,0,3,0,65,1,131,1,2016_Aug_09_1245,None,001,,
0.0,3,0,3,0,66,0,132,0,2016_Aug_09_1245,None,001,,
0.5,3,0,3,0,66,1,133,1,2016_Aug_09_1245,None,001,,
0.0,3,0,3,0,67,0,134,0,2016_Aug_09_1245,None,001,,
0.5,3,0,3,0,67,1,135,1,2016_Aug_09_1245,None,001,,
0.0,3,0,3,0,68,0,136,0,2016_Aug_09_1245,None,001,,
0.5,3,0,3,0,68,1,137,1,2016_Aug_09_1245,None,001,,
0.0,3,0,3,0,69,0,138,0,2016_Aug_09_1245,None,001,,
0.5,3,0,3,0,69,1,139,1,2016_Aug_09_1245,None,001,,
0.0,3,0,3,0,70,0,140,0,2016_Aug_09_1245,None,001,,
0.5,3,0,3,0,70,1,141,1,2016_Aug_09_1245,None,001,,
0.0,3,0,3,0,71,0,142,0,2016_Aug_09_1245,None,001,,
0.5,3,0,3,0,71,1,143,1,2016_Aug_09_1245,None,001,,
0.0,3,0,3,0,72,0,144,0,2016_Aug_09_1245,None,001,,
0.5,3,0,3,0,72,1,145,1,2016_Aug_09_1245,None,001,,
0.0,3,0,3,0,73,0,146,0,2016_Aug_09_1245,None,001,,
0.5,3,0,3,0,73,1,147,1,2016_Aug_09_1245,None,001,,
0.0,3,0,3,0,74,0,148,0,2016_Aug_09_1245,None,001,,
0.5,3,0,3,0,74,1,149,1,2016_Aug_09_1245,None,001,,
0.0,3,0,3,0,75,0,150,0,2016_Aug_09_1245,None,001,,
0.5,3,0,3,0,75,1,151,1,2016_Aug_09_1245,None,001,,
0.0,3,0,3,0,76,0,152,0,2016_Aug_09_1245,None,001,,
0.5,3,0,3,0,76,1,153,1,2016_Aug_09_1245,None,001,,
0.0,3,0,3,0,77,0,154,0,2016_Aug_09_1245,None,001,,
0.5,3,0,3,0,77,1,155,1,2016_Aug_09_1245,None,001,,
0.0,3,0,3,0,78,0,156,0,2016_Aug_09_1245,None,001,,
0.5,3,0,3,0,78,1,157,1,2016_Aug_09_1245,None,001,,
0.0,3,0,3,0,79,0,158,0,2016_Aug_09_1245,None,001,,
0.5,3,0,3,0,79,1,159,1,2016_Aug_09_1245,None,001,,
0.0,3,0,3,0,80,0,160,0,2016_Aug_09_1245,None,001,,
0.5,3,0,3,0,80,1,161,1,2016_Aug_09_1245,None,001,,
0.0,3,0,3,0,81,0,162,0,2016_Aug_09_1245,None,001,,
0.5,3,0,3,0,81,1,163,1,2016_Aug_09_1245,None,001,,
0.0,3,0,3,0,82,0,164,0,2016_Aug_09_1245,None,001,,
0.5,3,0,3,0,82,1,165,1,2016_Aug_09_1245,None,001,,
0.0,3,0,3,0,83,0,166,0,2016_Aug_09_1245,None,001,,
0.5,3,0,3,0,83,1,167,1,2016_Aug_09_1245,None,001,,
0.0,3,0,3,0,84,0,168,0,2016_Aug_09_1245,None,001,,
0.5,3,0,3,0,84,1,169,1,2016_Aug_09_1245,None,001,,
0.0,3,0,3,0,85,0,170,0,2016_Aug_09_1245,None,001,,
0.5,3,0,3,0,85,1,171,1,2016_Aug_09_1245,None,001,,
0.0,3,0,3,0,86,0,172,0,2016_Aug_09_1245,None,001,,
0.5,3,0,3,0,86,1,173,1,2016_Aug_09_1245,None,001,,
0.0,3,0,3,0,87,0,174,0,2016_Aug_09_1245,None,001,,
0.5,3,0,3,0,87,1,175,1,2016_Aug_09_1245,None,001,,
0.0,3,0,3,0,88,0,176,0,2016_Aug_09_1245,None,001,,
0.5,3,0,3,0,88,1,177,1,2016_Aug_09_1245,None,001,,
0.0,3,0,3,0,89,0,178,0,2016_Aug_09_1245,None,001,,
0.5,3,0,3,0,89,1,179,1,2016_Aug_09_1245,None,001,,
0.0,3,0,3,0,90,0,180,0,2016_Aug_09_1245,None,001,,
0.5,3,0,3,0,90,1,181,1,2016_Aug_09_1245,None,001,,
0.0,3,0,3,0,91,0,182,0,2016_Aug_09_1245,None,001,,
0.5,3,0,3,0,91,1,183,1,2016_Aug_09_1245,None,001,,
0.0,3,0,3,0,92,0,184,0,2016_Aug_09_1245,None,001,,
0.5,3,0,3,0,92,1,185,1,2016_Aug_09_1245,None,001,,
0.0,3,0,3,0,93,0,186,0,2016_Aug_09_1245,None,001,,
0.5,3,0,3,0,93,1,187,1,2016_Aug_09_1245,None,001,,
0.0,3,0,3,0,94,0,188,0,2016_Aug_09_1245,None,001,,
0.5,3,0,3,0,94,1,189,1,2016_Aug_09_1245,None,001,,
0.0,3,0,3,0,95,0,190,0,2016_Aug_09_1245,None,001,,
0.5,3,0,3,0,95,1,191,1,2016_Aug_09_1245,None,001,,
0.0,3,0,3,0,96,0,192,0,2016_Aug_09_1245,None,001,,
0.5,3,0,3,0,96,1,193,1,2016_Aug_09_1245,None,001,,
0.0,3,0,3,0,97,0,194,0,2016_Aug_09_1245,None,001,,
0.5,3,0,3,0,97,1,195,1,2016_Aug_09_1245,None,001,,
0.0,3,0,3,0,98,0,196,0,2016_Aug_09_1245,None,001,,
0.5,3,0,3,0,98,1,197,1,2016_Aug_09_1245,None,001,,
0.0,3,0,3,0,99,0,198,0,2016_Aug_09_1245,None,001,,
0.5,3,0,3,0,99,1,199,1,2016_Aug_09_1245,None,001,,
0.0,3,0,3,0,100,0,200,0,2016_Aug_09_1245,None,001,,
0.5,3,0,3,0,100,1,201,1,2016_Aug_09_1245,None,001,,
0.0,3,0,3,0,101,0,202,0,2016_Aug_09_1245,None,001,,
0.5,3,0,3,0,101,1,203,1,2016_Aug_09_1245,None,001,,
0.0,3,0,3,0,102,0,204,0,2016_Aug_09_1245,None,001,,
0.5,3,0,3,0,102,1,205,1,2016_Aug_09_1245,None,001,,
0.0,3,0,3,0,103,0,206,0,2016_Aug_09_1245,None,001,,
0.5,3,0,3,0,103,1,207,1,2016_Aug_09_1245,None,001,,
0.0,3,0,3,0,104,0,208,0,2016_Aug_09_1245,None,001,,
0.5,3,0,3,0,104,1,209,1,2016_Aug_09_1245,None,001,,
0.0,3,0,3,0,105,0,210,0,2016_Aug_09_1245,None,001,,
0.5,3,0,3,0,105,1,211,1,2016_Aug_09_1245,None,001,,
0.0,3,0,3,0,106,0,212,0,2016_Aug_09_1245,None,001,,
0.5,3,0,3,0,106,1,213,1,2016_Aug_09_1245,None,001,,
